aX,aY,aZ,gX,gY,gZ
-0.421,0.646,1.289,80.566,29.114,-18.799
-0.449,0.721,1.413,88.135,38.330,-28.564
-0.457,0.725,1.516,91.553,50.110,-39.307
-0.425,0.682,1.603,93.262,62.988,-51.880
-0.423,0.588,1.635,95.520,74.341,-63.416
-0.354,0.492,1.588,97.534,87.158,-74.280
-0.342,0.431,1.544,101.624,95.947,-83.069
-0.331,0.388,1.451,106.506,103.455,-91.248
-0.257,0.315,1.329,109.314,110.840,-100.098
-0.199,0.215,1.241,109.924,107.361,-110.229
-0.126,0.092,1.174,105.347,100.891,-118.774
-0.019,-0.042,1.114,97.229,97.656,-123.779
0.054,-0.102,1.096,93.872,85.388,-130.859
0.122,-0.193,1.132,95.764,62.988,-127.808
0.140,-0.363,1.177,95.093,47.729,-123.047
0.163,-0.435,1.205,87.158,53.711,-118.103
0.215,-0.474,1.179,78.430,70.007,-113.159
0.235,-0.504,1.105,67.810,86.853,-108.459
0.282,-0.509,1.013,54.626,98.267,-108.093
0.283,-0.528,0.993,49.255,86.304,-110.474
0.327,-0.599,1.024,41.260,76.477,-109.802
0.333,-0.658,1.093,30.273,71.350,-109.680
0.354,-0.736,1.123,19.775,71.594,-110.046
0.393,-0.850,1.166,11.108,71.655,-108.765
0.390,-0.924,1.135,7.568,71.594,-105.286
0.394,-0.993,1.089,11.597,73.181,-101.196
0.393,-0.975,1.065,20.508,76.782,-97.656
0.365,-0.899,1.044,28.137,82.764,-95.032
0.352,-0.851,1.065,27.710,87.830,-93.811
0.293,-0.852,1.070,14.832,91.003,-92.651
0.424,-0.777,1.020,-8.179,94.177,-92.468
0.341,-0.797,1.001,-31.067,77.820,-88.623
0.294,-0.806,0.963,-57.251,74.036,-88.928
0.306,-0.796,0.936,-83.618,89.355,-91.492
0.327,-0.761,0.932,-107.361,102.661,-91.675
0.352,-0.809,0.936,-124.084,105.225,-89.905
0.364,-0.843,1.009,-132.019,103.394,-88.013
0.371,-0.894,1.115,-123.596,99.060,-84.229
0.330,-0.914,1.122,-100.220,99.182,-80.322
0.277,-0.871,1.033,-72.266,106.873,-76.965
0.235,-0.817,0.920,-50.049,117.188,-76.965
0.226,-0.778,0.811,-40.039,124.573,-78.979
0.220,-0.753,0.771,-39.063,120.605,-81.360
0.237,-0.822,0.749,-40.955,108.093,-83.313
0.268,-0.917,0.750,-45.410,95.398,-82.703
0.288,-0.985,0.753,-50.842,84.656,-73.242
0.238,-0.994,0.707,-49.438,81.116,-63.232
0.226,-1.026,0.604,-38.757,86.304,-56.763
0.215,-1.075,0.552,-27.222,94.727,-52.307
0.240,-1.131,0.553,-15.564,103.760,-49.561
0.286,-1.195,0.562,-2.441,114.380,-50.842
0.316,-1.260,0.556,6.104,125.183,-52.124
0.287,-1.269,0.561,9.033,136.658,-50.659
0.281,-1.263,0.549,13.794,146.484,-43.091
0.383,-1.335,0.481,20.142,154.114,-26.367
0.414,-1.387,0.417,18.860,156.250,-8.911
0.426,-1.421,0.364,13.916,154.724,5.859
0.434,-1.436,0.290,12.207,151.855,20.813
0.458,-1.425,0.218,12.756,149.048,35.889
0.467,-1.385,0.175,15.198,145.142,50.293
0.468,-1.308,0.144,19.775,139.465,62.500
0.445,-1.215,0.112,24.658,132.263,72.693
0.434,-1.115,0.064,26.672,124.634,81.665
0.419,-1.025,0.001,25.024,117.249,88.623
0.376,-0.934,-0.051,19.836,109.253,93.628
0.373,-0.883,-0.085,16.357,100.952,96.802
0.359,-0.854,-0.088,15.259,94.360,100.342
0.341,-0.840,-0.110,15.503,90.027,104.187
0.329,-0.878,-0.120,16.663,88.806,108.459
0.316,-0.894,-0.085,17.822,89.172,113.953
0.300,-0.871,-0.074,21.118,91.980,118.530
0.257,-0.766,-0.059,25.330,96.436,122.864
0.231,-0.660,-0.073,31.067,98.389,123.718
0.219,-0.601,-0.098,39.063,89.233,122.864
0.184,-0.544,-0.092,44.006,70.862,123.657
0.200,-0.489,-0.112,48.096,49.133,127.502
0.174,-0.464,-0.136,54.443,24.170,130.615
0.131,-0.440,-0.134,61.523,0.977,130.371
0.096,-0.400,-0.143,69.214,-15.991,129.211
0.070,-0.410,-0.185,77.698,-28.015,128.967
0.026,-0.375,-0.206,83.801,-38.940,129.761
-0.021,-0.292,-0.217,87.708,-50.842,129.883
-0.062,-0.261,-0.219,91.370,-63.782,128.967
-0.111,-0.226,-0.245,96.008,-77.515,129.456
-0.159,-0.201,-0.274,102.539,-92.773,129.944
-0.220,-0.159,-0.250,105.774,-110.046,130.615
-0.298,-0.083,-0.206,107.544,-125.732,130.615
-0.352,-0.011,-0.159,111.511,-139.954,129.333
-0.384,0.031,-0.155,115.173,-153.076,126.526
-0.404,0.021,-0.149,117.554,-166.199,123.474
-0.437,0.035,-0.151,120.483,-179.260,120.178
-0.465,0.054,-0.150,127.502,-191.406,115.356
-0.503,0.092,-0.157,135.498,-202.026,110.291
-0.535,0.110,-0.144,138.367,-211.670,104.858
-0.540,0.086,-0.053,135.071,-221.924,101.013
-0.575,0.137,0.049,128.479,-230.347,98.389
-0.600,0.192,0.146,123.291,-236.877,96.924
-0.636,0.242,0.303,117.310,-242.371,96.313
-0.658,0.301,0.484,108.948,-244.751,93.445
-0.648,0.315,0.597,101.257,-242.493,87.769
-0.637,0.270,0.659,97.839,-238.770,82.520
-0.646,0.221,0.702,97.839,-235.352,80.688
-0.675,0.234,0.781,101.379,-231.201,78.674
-0.698,0.318,0.866,109.497,-224.731,72.144
-0.709,0.388,0.883,119.812,-217.285,63.110
-0.704,0.385,0.908,125.488,-212.219,53.711
-0.723,0.355,0.945,124.207,-209.900,46.509
-0.713,0.260,1.049,115.784,-208.679,42.480
-0.701,0.179,1.240,103.394,-206.604,40.283
-0.654,0.114,1.387,92.773,-199.097,37.598
-0.584,0.108,1.541,82.092,-189.758,32.349
-0.605,0.169,1.622,76.233,-186.035,24.475
-0.605,0.231,1.617,76.843,-177.856,15.381
-0.636,0.170,1.598,78.918,-174.255,0.305
-0.693,0.103,1.622,72.815,-170.105,-13.672
-0.558,0.156,1.653,52.795,-142.395,-18.738
-0.555,0.151,1.705,44.189,-147.339,-21.179
-0.570,0.115,1.824,43.701,-164.551,-26.123
-0.599,0.154,2.030,43.823,-172.546,-33.630
-0.574,0.095,2.497,41.992,-144.531,-55.237
-0.548,0.127,2.680,33.508,-119.141,-63.599
-0.552,0.131,2.687,24.292,-90.820,-71.228
-0.561,0.066,2.612,13.306,-62.256,-79.956
-0.574,0.108,2.559,-0.122,-38.574,-87.769
-0.546,0.084,2.445,-11.414,-17.761,-97.961
-0.489,0.002,2.241,-30.151,4.517,-106.323
-0.489,-0.096,2.276,-50.842,0.244,-104.919
-0.602,-0.091,2.250,-43.335,-20.996,-114.380
-0.534,-0.164,2.197,-4.578,-22.034,-138.306
-0.654,-0.225,2.074,46.814,-23.682,-150.818
-0.622,-0.250,1.839,70.801,38.025,-150.391
-0.523,-0.279,1.648,83.008,88.867,-151.794
-0.475,-0.340,1.524,89.539,102.539,-155.640
-0.422,-0.457,1.452,83.435,101.379,-157.288
-0.382,-0.561,1.381,66.711,100.586,-153.442
-0.343,-0.705,1.270,48.462,98.877,-147.034
-0.322,-0.811,1.165,30.151,94.971,-140.137
-0.267,-0.908,1.056,14.404,91.248,-133.545
-0.214,-0.994,0.974,1.953,88.074,-127.319
-0.169,-1.015,0.895,-8.789,84.045,-120.178
-0.115,-1.039,0.742,-15.747,78.430,-113.525
-0.074,-1.057,0.681,-22.888,69.641,-109.314
-0.028,-1.060,0.646,-27.161,61.035,-104.309
0.009,-1.043,0.630,-24.170,55.481,-98.389
0.041,-1.023,0.635,-17.029,51.941,-91.919
0.077,-1.019,0.627,-10.437,49.500,-84.229
0.103,-1.021,0.665,-8.728,45.654,-75.684
0.116,-1.002,0.712,-11.963,41.626,-66.040
0.106,-0.974,0.736,-17.456,38.574,-55.847
0.110,-0.946,0.766,-22.522,36.072,-47.852
0.129,-0.920,0.786,-26.123,33.752,-41.199
0.117,-0.902,0.796,-27.649,30.518,-33.875
0.103,-0.857,0.805,-26.245,28.137,-26.184
0.087,-0.800,0.815,-20.386,26.978,-19.348
0.074,-0.732,0.835,-11.536,25.391,-14.160
0.072,-0.662,0.838,-2.502,24.658,-11.414
0.079,-0.617,0.851,3.845,23.193,-9.338
0.083,-0.567,0.848,6.592,21.301,-5.615
0.082,-0.522,0.848,9.033,16.968,-2.686
0.062,-0.491,0.853,11.414,14.771,-0.793
0.049,-0.419,0.859,9.705,19.897,3.601
0.052,-0.362,0.842,6.470,26.733,7.874
0.044,-0.317,0.848,5.859,25.085,8.240
0.048,-0.288,0.837,5.981,21.423,6.287
0.073,-0.290,0.856,3.601,14.893,5.493
0.036,-0.269,0.867,-1.526,10.193,7.019
0.028,-0.269,0.869,-7.202,12.146,7.690
0.004,-0.275,0.889,-10.742,10.986,9.827
0.022,-0.251,0.869,-14.282,19.165,11.780
0.029,-0.236,0.866,-12.695,19.531,12.085
0.021,-0.255,0.885,-7.385,11.047,10.071
0.009,-0.268,0.913,-0.488,5.188,7.935
0.000,-0.271,0.923,6.104,5.249,7.141
-0.006,-0.270,0.906,11.841,8.972,7.019
-0.003,-0.265,0.895,16.357,9.644,5.798
-0.010,-0.282,0.908,18.921,6.592,4.639
-0.010,-0.290,0.922,17.517,7.141,4.944
-0.008,-0.281,0.932,14.648,9.155,4.944
-0.009,-0.294,0.942,12.817,8.606,3.662
-0.014,-0.315,0.942,9.277,8.789,3.296
-0.011,-0.330,0.930,5.066,9.705,4.150
-0.014,-0.327,0.903,2.197,9.949,4.822
-0.015,-0.319,0.895,-1.099,8.667,5.005
-0.012,-0.330,0.892,-4.639,7.019,5.127
-0.012,-0.334,0.911,-7.690,5.249,5.554
-0.010,-0.329,0.919,-7.751,4.639,5.676
-0.009,-0.322,0.917,-5.493,4.883,5.432
-0.003,-0.311,0.917,-3.479,4.700,4.517
0.006,-0.305,0.937,-1.892,4.639,4.456
0.010,-0.292,0.943,0.061,5.005,4.883
0.012,-0.285,0.938,2.502,5.615,4.883
0.014,-0.280,0.940,4.211,6.165,4.761
0.020,-0.276,0.945,4.333,6.592,4.211
0.023,-0.272,0.931,4.211,7.019,4.089
0.021,-0.274,0.922,2.869,7.141,4.028
0.025,-0.276,0.922,1.038,6.836,3.723
0.028,-0.275,0.916,0.305,6.836,3.235
0.031,-0.275,0.903,-0.183,6.653,2.869
0.032,-0.279,0.901,-1.587,5.676,2.441
0.036,-0.287,0.905,-3.113,4.944,2.747
0.041,-0.284,0.902,-3.845,4.333,3.296
0.038,-0.282,0.894,-3.601,3.967,3.235
0.041,-0.289,0.902,-2.258,3.113,2.625
0.041,-0.299,0.907,-0.061,2.625,2.441
0.039,-0.299,0.904,2.808,2.319,2.136
0.044,-0.306,0.905,6.409,2.014,1.892
0.047,-0.309,0.900,8.789,2.014,2.014
0.047,-0.307,0.907,9.766,1.221,2.563
0.042,-0.300,0.913,9.888,0.793,3.113
0.043,-0.293,0.908,9.644,0.671,3.662
0.044,-0.298,0.907,7.812,0.305,3.662
0.044,-0.304,0.910,4.517,-0.549,3.723
0.042,-0.298,0.905,1.282,-1.282,4.211
0.043,-0.295,0.916,-1.038,-1.892,4.578
0.038,-0.289,0.917,-3.052,-2.441,4.456
0.044,-0.301,0.925,-4.150,-2.747,4.028
0.044,-0.304,0.932,-5.066,-2.747,4.150
0.038,-0.295,0.936,-5.920,-2.625,4.944
0.039,-0.295,0.942,-5.615,-2.625,5.188
0.041,-0.293,0.936,-4.639,-1.831,5.188
0.039,-0.293,0.932,-2.930,-1.465,4.944
0.045,-0.298,0.933,-1.587,-1.587,4.822
0.038,-0.288,0.939,-1.099,-1.648,5.493
0.036,-0.284,0.929,0.244,-1.160,5.798
0.036,-0.290,0.928,1.404,-1.587,5.371
0.034,-0.279,0.927,2.197,-2.197,5.310
0.036,-0.280,0.927,2.808,-2.136,4.822
0.036,-0.283,0.936,2.502,-2.563,4.272
0.032,-0.272,0.937,1.648,-2.747,4.578
0.033,-0.274,0.933,1.221,-2.930,4.211
0.035,-0.277,0.931,-0.183,-2.930,3.845
0.034,-0.291,0.928,-1.770,-3.113,3.906
0.035,-0.295,0.930,-3.479,-3.052,4.578
0.030,-0.292,0.927,-4.211,-3.235,5.188
0.031,-0.300,0.927,-4.089,-3.357,5.249
0.032,-0.301,0.928,-3.723,-3.052,5.493
0.036,-0.299,0.934,-2.991,-2.686,5.432
0.040,-0.301,0.933,-1.465,-2.563,5.676
-0.189,0.359,1.703,28.259,-8.301,-50.598
-0.168,0.327,1.822,27.649,-2.197,-58.716
-0.139,0.291,1.907,28.748,6.592,-67.566
-0.137,0.263,1.913,31.799,17.944,-75.989
-0.098,0.188,1.811,36.560,31.250,-84.961
-0.058,0.078,1.726,38.574,38.147,-93.506
-0.021,-0.028,1.669,37.720,42.358,-99.792
-0.020,-0.124,1.601,38.452,50.171,-103.699
0.059,-0.196,1.503,42.542,60.181,-107.056
0.056,-0.256,1.430,46.448,64.331,-108.826
0.107,-0.320,1.369,51.331,66.589,-112.915
0.119,-0.375,1.317,53.955,67.871,-115.173
0.138,-0.404,1.270,52.734,67.871,-115.784
0.147,-0.405,1.241,48.645,66.895,-115.723
0.137,-0.398,1.236,38.879,67.444,-115.173
0.127,-0.437,1.223,24.292,69.458,-114.929
0.120,-0.516,1.264,8.362,70.374,-114.868
0.102,-0.586,1.252,-3.113,72.815,-114.502
0.066,-0.639,1.210,-4.822,76.416,-114.624
0.034,-0.643,1.152,-1.343,80.750,-115.112
0.010,-0.670,1.082,2.502,86.792,-115.173
-0.023,-0.667,1.036,4.517,90.881,-114.441
-0.032,-0.649,0.987,5.310,93.994,-113.403
-0.074,-0.667,0.989,5.066,92.712,-112.549
-0.082,-0.662,1.043,3.174,93.933,-110.107
-0.108,-0.669,1.047,3.479,99.365,-111.267
-0.125,-0.693,1.045,2.991,107.300,-112.793
-0.135,-0.752,1.076,-2.014,112.000,-112.366
-0.175,-0.762,1.115,-8.484,114.868,-111.511
-0.225,-0.806,1.110,-14.404,121.460,-108.826
-0.256,-0.829,1.117,-24.780,128.845,-104.919
-0.305,-0.814,1.138,-37.354,133.789,-100.647
-0.349,-0.826,1.148,-43.091,136.719,-98.511
-0.377,-0.846,1.141,-44.739,140.747,-97.656
-0.410,-0.873,1.135,-44.312,146.545,-97.107
-0.460,-0.929,1.085,-41.565,153.931,-95.642
-0.506,-0.987,1.011,-40.649,160.522,-92.712
-0.482,-1.017,0.978,-41.138,169.128,-90.088
-0.434,-1.068,0.947,-39.856,174.011,-90.698
-0.376,-1.098,0.949,-39.673,174.927,-79.224
-0.436,-1.148,0.913,-39.612,179.260,-67.810
-0.335,-1.215,0.871,-31.677,187.988,-72.571
-0.232,-1.260,0.821,-17.090,177.612,-70.740
-0.226,-1.266,0.695,-3.906,150.269,-58.167
-0.225,-1.275,0.614,7.202,127.563,-47.180
-0.177,-1.285,0.529,15.625,123.962,-38.513
-0.112,-1.279,0.456,21.484,134.399,-28.687
-0.072,-1.282,0.356,29.175,143.799,-17.944
-0.062,-1.290,0.262,37.781,148.010,-5.798
-0.042,-1.276,0.213,43.518,148.071,6.104
0.009,-1.278,0.213,46.326,145.691,16.418
0.072,-1.303,0.237,49.194,142.700,26.550
0.113,-1.256,0.304,51.270,138.428,37.842
0.138,-1.189,0.310,55.908,136.780,47.852
0.111,-1.104,0.310,62.317,138.123,55.725
0.139,-1.040,0.271,69.092,142.578,62.683
0.146,-1.031,0.246,68.115,141.541,71.289
0.136,-1.043,0.239,62.134,141.235,81.848
0.116,-1.027,0.199,57.922,144.104,93.750
0.128,-0.956,0.183,59.509,148.071,103.638
0.122,-0.916,0.110,63.782,143.311,110.168
0.104,-0.897,0.052,68.176,129.517,116.577
0.088,-0.854,0.080,70.984,112.000,124.329
0.070,-0.829,0.104,71.472,102.051,132.019
0.077,-0.766,0.059,69.214,99.792,138.489
0.081,-0.719,0.119,67.139,97.229,145.935
0.092,-0.656,0.079,62.927,85.022,155.884
0.114,-0.606,0.066,63.904,61.279,161.682
0.100,-0.535,0.088,73.669,30.640,164.062
0.064,-0.482,0.087,87.280,1.404,164.490
0.036,-0.438,0.068,100.037,-21.912,161.316
0.022,-0.391,0.073,109.192,-39.063,157.104
0.019,-0.321,0.094,115.540,-52.734,152.954
0.028,-0.266,0.095,120.605,-63.354,148.987
0.041,-0.226,0.073,124.268,-71.594,144.592
0.043,-0.211,0.069,124.939,-78.308,141.968
0.037,-0.200,0.061,122.620,-82.886,143.066
0.023,-0.156,0.011,120.728,-87.158,144.531
0.011,-0.128,-0.041,118.652,-92.529,143.799
0.019,-0.087,-0.026,113.647,-100.830,142.273
0.025,-0.048,0.011,106.873,-108.887,143.188
0.015,-0.015,0.005,101.318,-114.685,145.203
0.021,0.018,0.029,98.328,-121.826,143.799
0.042,0.086,0.085,96.924,-128.845,139.343
0.054,0.131,0.144,95.581,-133.667,135.681
0.037,0.172,0.197,93.262,-136.658,134.155
-0.000,0.196,0.224,91.125,-138.855,133.179
-0.020,0.158,0.219,90.698,-141.418,131.958
-0.045,0.114,0.250,89.478,-146.484,129.395
-0.081,0.094,0.274,87.585,-151.672,125.916
-0.104,0.078,0.313,86.304,-156.677,123.535
-0.116,0.053,0.366,84.290,-161.011,122.009
-0.113,0.031,0.475,81.665,-164.368,122.192
-0.131,0.052,0.557,79.895,-165.283,123.657
-0.163,0.080,0.576,81.604,-164.795,121.948
-0.186,0.068,0.576,84.473,-165.222,118.103
-0.213,0.084,0.583,84.167,-167.114,115.906
-0.234,0.095,0.602,82.703,-169.373,113.464
-0.252,0.129,0.644,82.642,-171.509,110.779
-0.282,0.169,0.655,85.815,-173.096,107.483
-0.303,0.228,0.649,91.614,-174.561,103.027
-0.320,0.245,0.655,94.666,-177.063,96.985
-0.311,0.209,0.727,91.553,-181.946,91.553
-0.300,0.193,0.853,84.351,-187.073,87.097
-0.296,0.204,1.005,79.529,-189.636,85.083
-0.302,0.257,1.088,80.750,-186.707,82.886
-0.289,0.283,1.111,86.426,-181.213,76.660
-0.212,0.312,1.125,90.149,-176.880,69.336
-0.319,0.287,1.180,91.003,-181.641,63.293
-0.216,0.266,1.198,81.665,-170.776,60.059
-0.300,0.197,1.317,73.120,-175.903,50.049
-0.187,0.137,1.323,65.491,-164.185,41.016
-0.188,0.138,1.359,62.622,-161.865,41.016
-0.261,0.235,1.381,70.251,-167.297,37.720
-0.292,0.269,1.337,81.970,-160.217,27.588
-0.309,0.292,1.356,87.097,-154.480,15.747
-0.322,0.298,1.419,83.679,-154.541,4.822
-0.279,0.208,1.543,73.975,-157.654,-4.028
-0.260,0.132,1.757,59.326,-160.645,-9.888
-0.267,0.079,1.983,42.053,-144.409,-16.785
-0.294,0.123,1.883,46.448,-125.427,-22.400
-0.352,0.201,1.699,59.753,-105.408,-32.288
-0.397,0.201,1.545,70.435,-90.637,-46.265
-0.403,0.156,1.516,69.946,-85.815,-59.204
-0.391,0.062,1.573,64.087,-85.510,-69.092
-0.391,-0.018,1.632,60.242,-83.191,-76.538
-0.382,-0.082,1.671,60.791,-76.721,-84.045
-0.409,-0.107,1.656,62.134,-66.650,-90.271
-0.259,-0.145,1.519,61.157,-48.767,-95.276
-0.467,-0.205,1.592,61.462,-58.777,-99.243
-0.448,-0.283,1.591,60.303,-53.528,-105.835
-0.448,-0.368,1.580,54.016,-25.757,-105.652
-0.416,-0.440,1.507,45.654,-2.747,-104.248
-0.484,-0.538,1.391,36.011,5.798,-103.699
-0.274,-0.613,1.344,27.710,-17.822,-105.530
-0.632,-0.827,1.547,32.532,-96.619,-109.802
-0.413,-0.834,1.528,28.687,-77.637,-106.323
-0.459,-0.798,1.529,30.273,-30.396,-96.741
-0.433,-0.768,1.546,44.617,-7.812,-94.849
-0.365,-0.719,1.575,51.208,25.391,-93.689
-0.338,-0.664,1.539,50.598,54.382,-91.614
-0.303,-0.647,1.483,43.579,78.308,-88.928
-0.179,-0.606,1.411,31.128,94.421,-86.426
-0.183,-0.588,1.323,16.907,86.670,-82.886
-0.192,-0.590,1.238,-2.563,75.012,-74.097
-0.204,-0.610,1.176,-21.545,69.458,-71.106
-0.214,-0.641,1.185,-27.039,53.162,-72.266
-0.210,-0.633,1.130,-28.198,54.932,-69.153
-0.208,-0.617,1.039,-24.536,64.636,-69.275
-0.205,-0.657,0.953,-16.724,69.946,-72.876
-0.177,-0.695,0.866,-11.353,75.256,-73.059
-0.111,-0.683,0.780,-8.545,79.712,-68.848
-0.058,-0.650,0.743,-6.042,71.289,-63.843
-0.175,-0.677,0.761,-4.883,56.274,-54.688
-0.104,-0.739,0.752,-2.686,53.711,-62.744
-0.090,-0.791,0.712,-1.831,52.002,-59.204
-0.096,-0.806,0.684,-4.944,47.546,-50.415
-0.087,-0.819,0.687,-9.399,44.922,-42.053
-0.087,-0.837,0.677,-9.094,42.847,-37.537
-0.070,-0.821,0.659,-5.554,39.673,-33.630
-0.057,-0.788,0.681,-3.723,36.316,-28.625
-0.051,-0.756,0.706,-2.991,32.166,-23.010
-0.054,-0.735,0.732,-0.793,26.794,-18.799
-0.049,-0.701,0.755,0.000,24.292,-14.709
-0.055,-0.667,0.792,-1.038,22.827,-10.315
-0.057,-0.615,0.811,-2.319,22.522,-6.531
-0.047,-0.574,0.821,-3.601,23.132,-3.723
-0.051,-0.534,0.848,-5.859,22.766,-1.160
-0.059,-0.501,0.852,-8.667,23.071,1.282
-0.057,-0.483,0.847,-10.864,23.376,3.113
-0.051,-0.465,0.843,-13.184,22.583,5.127
-0.056,-0.430,0.836,-13.428,20.996,7.141
-0.058,-0.403,0.807,-10.925,19.470,8.423
-0.063,-0.375,0.806,-8.728,17.395,9.033
-0.058,-0.353,0.813,-6.531,14.893,9.216
-0.057,-0.326,0.824,-4.333,13.062,9.766
-0.059,-0.306,0.840,-2.625,11.536,9.949
-0.064,-0.285,0.863,-2.380,9.827,10.193
-0.070,-0.266,0.881,-2.319,8.911,10.010
-0.074,-0.266,0.891,-1.892,8.240,8.728
-0.077,-0.274,0.887,-2.563,8.057,7.385
-0.082,-0.295,0.877,-3.662,7.629,7.019
-0.088,-0.300,0.874,-4.150,6.531,7.019
-0.093,-0.309,0.858,-2.625,5.798,6.653
-0.094,-0.317,0.867,-1.282,4.700,6.226
-0.098,-0.321,0.880,0.183,3.479,5.615
-0.102,-0.322,0.880,3.296,2.625,4.883
-0.102,-0.312,0.876,5.371,1.587,4.333
-0.100,-0.308,0.888,5.188,0.610,3.723
-0.102,-0.309,0.903,3.662,-0.061,3.601
-0.103,-0.312,0.919,1.404,0.061,3.906
-0.096,-0.324,0.932,-0.305,0.488,3.296
-0.096,-0.332,0.944,-1.587,1.038,3.235
-0.100,-0.340,0.948,-1.892,1.892,3.662
-0.098,-0.339,0.949,-0.305,2.930,3.296
-0.096,-0.329,0.939,1.587,4.028,2.930
-0.094,-0.323,0.926,2.747,4.822,2.686
-0.090,-0.318,0.922,2.625,4.883,2.258
-0.082,-0.320,0.926,2.625,4.639,2.014
-0.078,-0.321,0.914,2.625,4.944,2.075
-0.081,-0.321,0.912,2.258,4.944,2.502
-0.074,-0.328,0.919,2.319,4.883,2.502
-0.076,-0.330,0.916,2.747,4.944,2.991
-0.075,-0.321,0.910,3.662,4.700,3.296
-0.071,-0.322,0.908,4.028,4.333,3.296
-0.070,-0.316,0.917,3.723,4.028,3.540
-0.073,-0.306,0.909,3.662,3.906,3.479
-0.070,-0.308,0.900,3.784,3.784,2.991
-0.075,-0.312,0.897,3.174,2.563,2.869
-0.072,-0.318,0.906,1.648,2.014,2.869
-0.064,-0.325,0.924,0.916,1.770,2.930
-0.066,-0.322,0.934,1.099,1.404,3.052
-0.068,-0.321,0.941,2.197,1.221,2.686
-0.065,-0.319,0.935,3.418,1.892,2.136
-0.066,-0.316,0.929,3.357,2.502,2.441
-0.066,-0.319,0.931,2.380,2.502,2.930
-0.066,-0.318,0.934,2.014,2.747,3.113
-0.063,-0.315,0.931,2.319,3.113,3.052
-0.067,-0.318,0.923,3.052,3.418,2.930
-0.068,-0.312,0.918,3.601,3.784,2.747
-0.062,-0.311,0.908,4.028,3.418,2.502
-0.064,-0.313,0.912,2.930,2.380,2.502
-0.062,-0.312,0.921,1.343,1.892,2.625
-0.063,-0.318,0.927,1.282,2.014,2.747
-0.064,-0.323,0.924,2.686,2.014,2.441
-0.064,-0.316,0.916,4.028,2.380,2.686
-0.065,-0.315,0.901,4.761,2.686,2.380
-0.067,-0.301,0.902,4.272,1.953,2.380
-0.064,-0.307,0.903,3.235,1.038,1.892
-0.062,-0.324,0.908,2.197,0.549,1.709
-0.062,-0.326,0.916,1.709,0.244,2.136
-0.062,-0.331,0.911,2.563,0.244,1.770
-0.059,-0.327,0.918,2.747,0.183,1.709
-0.061,-0.323,0.922,2.502,0.061,2.014
-0.059,-0.329,0.934,2.014,0.122,2.258
-0.057,-0.327,0.935,1.404,0.305,2.441
-0.058,-0.320,0.939,0.671,0.549,2.502
-0.055,-0.324,0.939,0.122,0.732,2.319
0.209,-0.923,0.941,-31.982,-36.255,57.800
0.193,-0.933,0.955,-34.180,-38.391,66.101
0.184,-0.920,0.977,-36.011,-39.368,73.425
0.159,-0.909,0.990,-35.767,-41.382,80.383
0.126,-0.876,1.006,-37.109,-42.542,88.074
0.085,-0.834,1.035,-40.527,-44.006,96.008
0.044,-0.787,1.050,-43.335,-44.556,103.088
0.002,-0.729,1.064,-45.593,-45.532,108.948
-0.029,-0.660,1.080,-48.706,-44.983,114.258
-0.046,-0.590,1.118,-52.551,-43.701,118.835
-0.058,-0.536,1.168,-55.969,-42.786,122.681
-0.076,-0.465,1.241,-60.547,-41.809,126.648
-0.087,-0.381,1.320,-64.392,-39.856,129.700
-0.083,-0.339,1.387,-66.711,-36.316,130.371
-0.077,-0.296,1.443,-68.115,-32.043,131.104
-0.089,-0.259,1.475,-66.833,-30.273,130.920
-0.132,-0.235,1.503,-63.110,-28.320,130.005
-0.109,-0.183,1.454,-57.373,-26.062,121.887
-0.189,-0.107,1.484,-56.152,-26.306,126.099
-0.212,-0.034,1.423,-60.303,-13.367,127.502
-0.212,0.000,1.379,-60.730,-1.160,122.131
-0.202,0.045,1.381,-59.875,5.981,116.394
-0.224,0.083,1.363,-56.946,5.249,111.145
-0.250,0.114,1.344,-52.856,7.935,103.821
-0.249,0.122,1.289,-47.058,14.709,95.642
-0.258,0.149,1.233,-41.870,20.264,89.050
-0.262,0.181,1.195,-37.903,21.423,82.764
-0.286,0.207,1.168,-35.217,21.179,76.355
-0.287,0.227,1.188,-35.217,23.499,70.129
-0.279,0.218,1.203,-35.217,28.870,63.354
-0.293,0.240,1.204,-33.020,32.837,57.861
-0.277,0.251,1.195,-30.396,36.438,52.429
-0.275,0.251,1.207,-28.320,37.476,45.044
-0.277,0.221,1.204,-27.161,39.124,39.551
-0.282,0.197,1.195,-28.076,44.678,34.851
-0.265,0.195,1.174,-29.602,51.208,31.433
-0.287,0.201,1.161,-29.480,54.321,27.832
-0.301,0.228,1.142,-28.015,58.228,24.780
-0.296,0.246,1.105,-27.527,67.017,20.020
-0.268,0.258,1.074,-26.733,70.557,13.550
-0.250,0.228,1.059,-26.733,68.665,9.338
-0.252,0.225,1.063,-28.320,63.782,7.385
-0.261,0.207,1.068,-28.748,60.059,5.310
-0.271,0.194,1.045,-28.564,61.340,3.235
-0.282,0.202,1.007,-27.710,64.880,1.465
-0.280,0.218,0.961,-27.771,66.467,-0.854
-0.301,0.196,0.949,-29.602,64.819,-3.113
-0.302,0.170,0.940,-31.006,63.293,-7.019
-0.285,0.182,0.947,-29.846,62.683,-11.353
-0.273,0.217,0.963,-27.588,60.852,-15.198
-0.279,0.230,0.974,-26.672,58.411,-19.531
-0.285,0.217,0.979,-27.832,58.167,-23.010
-0.291,0.189,0.955,-30.701,62.439,-24.231
-0.278,0.169,0.936,-33.386,68.604,-24.353
-0.263,0.180,0.960,-36.499,73.669,-23.010
-0.250,0.199,0.976,-39.185,79.773,-21.057
-0.238,0.215,0.969,-41.931,86.853,-18.311
-0.219,0.268,0.945,-44.983,93.506,-16.052
-0.199,0.342,0.924,-46.875,97.839,-15.503
-0.189,0.392,0.917,-47.791,99.121,-17.395
-0.180,0.411,0.925,-50.171,98.511,-21.729
-0.158,0.426,0.934,-52.307,96.802,-27.283
-0.145,0.443,0.946,-52.429,95.337,-31.433
-0.136,0.467,0.941,-51.636,94.971,-35.034
-0.123,0.492,0.936,-50.110,93.872,-40.161
-0.108,0.488,0.942,-48.035,91.736,-45.349
-0.100,0.486,0.941,-45.654,88.440,-49.561
-0.114,0.479,0.917,-42.114,85.693,-53.650
-0.120,0.472,0.897,-38.635,83.679,-57.190
-0.122,0.481,0.884,-36.926,82.092,-60.425
-0.105,0.467,0.880,-36.011,81.299,-64.148
-0.105,0.462,0.868,-35.828,80.811,-67.078
-0.104,0.480,0.839,-35.767,80.688,-69.946
-0.095,0.495,0.806,-36.011,80.200,-73.669
-0.085,0.496,0.746,-37.964,79.041,-77.026
-0.079,0.499,0.669,-41.870,76.904,-79.712
-0.047,0.491,0.642,-46.997,73.120,-81.177
-0.039,0.505,0.623,-53.894,69.031,-80.933
-0.033,0.508,0.597,-59.875,65.369,-81.482
-0.012,0.514,0.596,-63.599,61.279,-83.740
-0.004,0.527,0.583,-64.270,58.228,-86.731
-0.008,0.542,0.566,-62.378,55.237,-90.515
-0.001,0.518,0.544,-58.472,52.185,-95.459
-0.002,0.484,0.517,-53.467,49.316,-100.159
-0.003,0.443,0.479,-47.302,46.631,-104.187
-0.001,0.407,0.438,-41.138,43.762,-107.849
0.011,0.376,0.429,-36.560,40.405,-111.938
0.021,0.358,0.420,-32.593,37.354,-115.112
0.038,0.339,0.400,-29.358,34.851,-117.432
0.055,0.324,0.384,-27.771,32.288,-119.690
0.060,0.313,0.362,-28.198,29.602,-121.155
0.063,0.284,0.335,-29.968,26.062,-122.620
0.069,0.233,0.310,-33.691,21.973,-123.718
0.068,0.166,0.310,-39.612,17.090,-123.291
0.068,0.109,0.313,-45.837,12.329,-121.826
0.072,0.026,0.313,-49.744,7.996,-120.728
0.076,-0.035,0.304,-51.453,4.395,-119.446
0.087,-0.078,0.285,-48.767,0.610,-118.164
0.101,-0.120,0.258,-41.626,-3.296,-117.920
0.122,-0.132,0.245,-32.776,-7.385,-119.019
0.142,-0.152,0.212,-24.170,-11.414,-120.117
0.156,-0.171,0.213,-16.113,-16.907,-121.826
0.158,-0.215,0.217,-8.423,-22.888,-124.390
0.158,-0.277,0.237,-1.831,-27.832,-126.953
0.165,-0.341,0.249,2.991,-31.128,-128.113
0.170,-0.425,0.229,2.136,-33.142,-126.526
0.184,-0.517,0.204,-6.287,-36.194,-122.681
0.212,-0.624,0.177,-20.264,-41.443,-116.028
0.238,-0.693,0.192,-36.560,-49.316,-106.812
0.284,-0.730,0.268,-51.270,-58.289,-96.680
0.323,-0.725,0.402,-61.951,-66.162,-87.036
0.338,-0.708,0.524,-64.209,-71.472,-79.956
0.358,-0.704,0.620,-55.969,-72.815,-76.599
0.368,-0.685,0.656,-41.870,-70.496,-74.646
0.374,-0.695,0.641,-24.231,-66.589,-74.097
0.353,-0.708,0.588,-6.897,-63.416,-73.730
0.317,-0.721,0.543,6.470,-62.561,-73.059
0.311,-0.747,0.528,13.367,-63.477,-71.960
0.313,-0.797,0.533,10.376,-65.552,-67.810
0.279,-0.841,0.917,-7.202,-110.413,21.667
0.382,-0.777,0.944,-4.272,-109.924,26.611
0.341,-0.782,1.072,3.113,-123.779,23.865
0.296,-0.766,1.057,6.104,-125.061,31.494
0.292,-0.726,1.027,2.136,-104.309,39.001
0.312,-0.726,1.034,-1.404,-93.201,44.250
0.291,-0.709,1.055,-7.263,-90.820,51.514
0.263,-0.662,1.104,-10.681,-95.703,58.899
0.244,-0.623,1.172,-8.240,-99.121,63.721
0.243,-0.571,1.311,-4.456,-100.281,68.237
0.250,-0.474,1.476,-0.366,-99.365,72.693
0.259,-0.396,1.576,9.094,-93.140,73.181
0.253,-0.356,1.536,20.752,-81.543,69.885
0.210,-0.370,1.389,27.527,-67.871,69.336
0.164,-0.416,1.252,27.466,-58.289,71.289
0.131,-0.425,1.181,24.292,-53.772,75.317
0.080,-0.415,1.108,21.729,-52.429,80.627
0.039,-0.418,1.092,19.470,-54.260,84.656
0.050,-0.422,1.126,17.700,-57.251,86.548
0.052,-0.366,1.192,16.541,-60.425,89.966
0.071,-0.265,1.327,14.526,-62.561,93.445
0.109,-0.180,1.495,14.343,-61.096,94.177
0.121,-0.108,1.598,16.113,-54.565,93.567
0.088,-0.052,1.571,20.630,-45.227,92.346
0.096,-0.057,1.429,25.085,-30.579,87.830
0.108,-0.037,1.290,26.062,-26.062,86.304
0.263,0.012,1.095,22.339,-33.875,87.830
-0.059,0.051,1.342,21.301,-71.838,89.050
0.063,0.117,1.343,13.977,-48.218,88.074
0.311,0.189,1.167,8.606,-14.771,85.083
0.110,0.216,1.511,12.695,-66.101,80.566
-0.043,0.321,1.693,10.254,-93.811,84.595
0.070,0.377,1.682,6.531,-39.734,77.209
0.109,0.371,1.690,11.475,-16.602,69.153
0.054,0.397,1.610,15.686,-10.925,64.819
0.016,0.370,1.457,17.517,0.305,58.960
0.024,0.315,1.326,16.541,9.460,52.185
0.018,0.285,1.247,11.963,9.094,48.706
0.003,0.244,1.189,7.690,4.944,46.570
0.016,0.197,1.150,5.981,4.089,43.152
0.025,0.146,1.139,7.202,0.000,39.673
-0.011,0.139,1.152,12.939,-4.395,36.926
0.036,0.146,1.116,20.691,1.465,32.837
0.025,0.153,1.128,27.527,0.854,28.931
0.038,0.154,1.108,29.785,0.488,25.879
0.001,0.152,1.103,29.114,1.587,23.254
0.013,0.117,1.041,25.696,6.470,19.775
0.001,0.050,0.998,20.630,6.775,17.090
-0.010,0.018,0.977,12.695,6.104,16.663
-0.011,-0.000,0.977,7.568,4.272,15.686
-0.015,-0.022,0.967,4.883,3.235,14.282
-0.004,-0.026,0.976,2.563,1.587,12.634
0.034,-0.034,0.997,1.587,-0.366,11.047
-0.020,-0.044,1.020,3.113,-5.371,10.925
0.007,-0.020,0.996,3.967,-4.761,10.132
0.023,-0.023,1.010,5.859,-1.709,6.409
0.052,-0.026,1.004,7.019,-1.404,5.432
-0.015,-0.058,1.021,7.507,-5.371,6.287
0.021,-0.067,1.001,5.859,-3.540,5.554
0.026,-0.085,1.014,6.592,0.732,2.747
0.022,-0.090,1.001,7.263,2.075,2.380
0.020,-0.094,0.996,5.615,2.502,2.197
0.026,-0.120,0.991,4.150,2.197,1.221
0.027,-0.141,0.994,2.380,1.892,0.549
0.030,-0.157,0.997,1.892,1.709,0.244
0.030,-0.164,0.986,3.845,1.709,0.122
0.034,-0.170,0.990,5.798,1.282,0.244
0.036,-0.176,0.981,7.324,1.465,0.305
0.037,-0.177,0.969,7.996,1.587,0.427
0.037,-0.180,0.958,7.202,1.831,0.977
0.036,-0.181,0.955,5.310,1.404,1.770
0.039,-0.187,0.954,3.662,1.038,2.075
0.041,-0.192,0.954,2.502,0.916,2.502
0.041,-0.194,0.949,2.136,0.610,2.869
0.042,-0.192,0.945,2.991,0.183,3.052
0.044,-0.180,0.949,3.296,-0.244,3.601
0.048,-0.170,0.952,3.052,-0.793,4.150
0.049,-0.174,0.955,2.869,-0.793,4.395
0.051,-0.158,0.953,2.319,-0.366,4.761
0.052,-0.151,0.950,2.686,-0.488,4.761
0.056,-0.151,0.959,2.686,-0.610,4.333
0.059,-0.143,0.958,2.747,-0.244,4.150
0.057,-0.146,0.945,3.052,0.061,3.906
0.055,-0.148,0.943,2.869,-0.061,3.723
0.056,-0.142,0.948,2.563,-0.366,3.540
0.056,-0.151,0.951,2.625,-0.427,3.052
0.054,-0.162,0.956,2.625,-0.366,2.686
0.052,-0.167,0.960,3.418,-0.061,2.502
0.050,-0.178,0.961,4.761,0.488,2.319
0.047,-0.174,0.952,5.676,0.977,2.258
0.047,-0.173,0.943,5.981,1.038,2.075
0.047,-0.187,0.944,4.761,0.793,1.953
0.049,-0.195,0.957,2.625,0.488,2.502
0.046,-0.194,0.964,1.831,0.549,3.113
0.045,-0.192,0.962,1.953,0.732,3.723
0.047,-0.187,0.967,2.441,0.732,3.845
0.046,-0.190,0.965,2.930,0.916,3.784
0.049,-0.191,0.968,3.235,1.038,3.906
0.050,-0.183,0.967,3.479,1.221,4.272
0.050,-0.179,0.960,3.967,1.404,4.333
0.055,-0.183,0.951,4.333,1.648,4.028
0.057,-0.181,0.937,4.883,1.770,4.211
0.060,-0.175,0.927,5.310,1.648,4.272
0.061,-0.174,0.918,5.310,1.160,4.150
0.060,-0.176,0.920,4.456,0.122,4.333
0.062,-0.176,0.934,3.601,-0.732,4.395
0.061,-0.168,0.946,2.991,-1.038,4.883
0.058,-0.161,0.948,2.625,-0.854,5.127
0.058,-0.164,0.955,2.319,-1.221,4.761
0.058,-0.164,0.965,1.831,-1.404,4.822
0.055,-0.159,0.970,1.587,-1.099,4.883
0.054,-0.158,0.966,2.380,-0.793,4.700
0.054,-0.158,0.968,2.563,-0.610,4.639
0.056,-0.164,0.966,3.174,-0.488,4.456
0.052,-0.156,0.966,3.723,-0.305,4.395
0.052,-0.154,0.962,4.089,-0.427,4.089
0.053,-0.165,0.970,3.662,-0.793,3.418
0.052,-0.168,0.971,2.930,-0.793,3.296
0.051,-0.168,0.967,2.502,-0.488,3.479
-0.008,0.665,1.488,38.940,-9.766,-36.682
0.059,0.689,1.579,44.617,-3.906,-46.814
0.030,0.685,1.661,55.237,-11.963,-57.922
-0.003,0.654,1.713,64.392,-16.968,-68.970
-0.005,0.568,1.703,67.932,-6.287,-79.468
0.005,0.471,1.723,65.186,5.676,-87.952
0.002,0.389,1.753,59.387,13.977,-93.872
0.001,0.284,1.773,53.040,19.714,-99.915
0.005,0.191,1.791,44.861,26.245,-105.713
0.000,0.103,1.776,36.438,34.546,-111.023
0.002,0.006,1.750,28.870,43.274,-115.784
-0.000,-0.105,1.683,23.560,49.988,-119.751
-0.020,-0.190,1.630,20.203,52.979,-123.474
0.000,-0.253,1.575,17.883,55.969,-126.404
-0.013,-0.308,1.581,18.494,59.204,-127.869
0.007,-0.344,1.534,18.433,64.697,-130.066
-0.003,-0.385,1.505,18.799,69.946,-130.493
-0.003,-0.424,1.465,18.433,74.036,-129.333
-0.002,-0.474,1.435,15.625,78.064,-127.441
-0.018,-0.539,1.421,11.475,81.055,-125.244
-0.038,-0.612,1.351,10.254,85.510,-123.474
-0.055,-0.635,1.279,15.442,89.417,-122.803
-0.070,-0.658,1.159,26.733,94.543,-122.864
-0.087,-0.658,1.069,35.583,96.924,-121.887
-0.082,-0.679,1.036,39.063,97.046,-120.728
-0.099,-0.731,1.083,38.330,97.656,-118.774
-0.130,-0.751,1.108,34.546,105.225,-116.516
-0.084,-0.758,1.061,29.297,119.446,-115.906
-0.147,-0.808,0.997,21.484,125.671,-111.084
-0.184,-0.829,0.963,10.437,135.559,-106.323
-0.209,-0.855,0.950,1.282,148.071,-102.417
-0.230,-0.882,0.939,-8.423,159.668,-97.839
-0.237,-0.889,0.981,-17.395,164.734,-95.093
-0.250,-0.981,0.997,-22.522,166.870,-94.177
-0.287,-1.126,1.037,-25.391,166.077,-90.332
-0.354,-1.204,1.024,-26.306,167.175,-81.177
-0.402,-1.285,0.963,-23.010,168.091,-69.397
-0.405,-1.326,0.918,-18.188,163.696,-56.824
-0.414,-1.355,0.928,-10.803,145.630,-44.006
-0.442,-1.408,0.973,0.305,123.779,-35.400
-0.425,-1.416,1.051,13.855,112.793,-31.067
-0.415,-1.418,1.031,29.114,115.662,-24.414
-0.412,-1.431,0.944,42.664,126.343,-17.090
-0.383,-1.465,0.768,55.054,139.221,-9.033
-0.358,-1.492,0.600,66.772,146.484,1.465
-0.327,-1.453,0.469,77.026,148.010,15.686
-0.310,-1.394,0.335,85.815,149.231,31.616
-0.301,-1.343,0.233,91.614,151.367,48.462
-0.295,-1.244,0.123,95.703,153.381,62.683
-0.272,-1.162,0.013,101.868,149.719,72.327
-0.224,-1.101,-0.047,106.262,139.954,80.750
-0.175,-1.011,-0.064,104.309,128.052,91.492
-0.140,-0.944,-0.066,99.548,114.380,102.417
-0.117,-0.896,-0.052,93.140,99.976,112.732
-0.099,-0.867,-0.015,87.219,83.618,121.704
-0.075,-0.812,0.031,81.909,66.345,129.517
-0.061,-0.751,0.035,77.820,50.781,136.719
-0.051,-0.688,0.021,72.876,36.865,142.639
-0.051,-0.636,-0.004,66.528,24.597,147.644
-0.052,-0.603,-0.012,60.059,14.648,152.466
-0.049,-0.560,-0.013,55.542,7.874,156.372
-0.050,-0.523,-0.040,53.406,3.479,159.668
-0.061,-0.490,-0.075,51.575,-1.465,163.147
-0.068,-0.440,-0.104,49.194,-7.690,165.771
-0.062,-0.399,-0.114,47.058,-15.381,166.565
-0.061,-0.373,-0.125,45.715,-23.071,166.809
-0.057,-0.329,-0.150,45.105,-30.640,167.419
-0.050,-0.286,-0.161,45.227,-39.429,167.664
-0.057,-0.225,-0.148,44.678,-49.133,168.152
-0.068,-0.137,-0.131,42.908,-59.448,168.640
-0.065,-0.102,-0.125,41.687,-69.641,167.480
-0.068,-0.090,-0.136,39.795,-79.590,166.443
-0.085,-0.084,-0.135,37.781,-90.088,166.077
-0.095,-0.078,-0.117,38.025,-100.525,165.833
-0.098,-0.069,-0.067,41.016,-110.657,166.443
-0.113,0.000,0.020,44.495,-119.446,168.274
-0.125,0.097,0.089,50.659,-125.549,168.213
-0.126,0.137,0.132,57.617,-129.456,164.978
-0.135,0.120,0.177,62.378,-133.240,160.645
-0.162,0.079,0.205,66.589,-136.963,157.288
-0.202,0.089,0.222,72.205,-140.442,155.823
-0.209,0.180,0.208,79.712,-144.165,150.024
-0.153,0.233,0.250,85.449,-150.513,141.174
-0.135,0.331,0.383,81.177,-158.875,139.343
-0.106,0.447,0.522,73.914,-165.588,137.878
-0.095,0.434,0.623,68.726,-169.067,133.057
-0.093,0.385,0.676,61.035,-170.227,131.165
-0.122,0.390,0.717,53.467,-169.922,130.737
-0.115,0.306,0.749,51.819,-167.847,127.258
-0.136,0.295,0.773,53.223,-165.100,124.573
-0.154,0.324,0.781,57.983,-163.208,120.056
-0.164,0.304,0.766,64.392,-162.598,113.586
-0.173,0.285,0.780,66.162,-163.574,109.314
-0.182,0.260,0.811,65.796,-165.649,106.506
-0.185,0.245,0.861,64.758,-167.419,104.675
-0.225,0.255,0.900,60.486,-168.518,102.722
-0.230,0.346,1.000,52.490,-171.326,97.839
-0.158,0.379,1.180,43.152,-173.523,90.820
-0.127,0.337,1.372,34.058,-171.997,85.510
-0.114,0.285,1.508,31.128,-164.917,82.397
-0.114,0.273,1.509,41.687,-152.039,77.820
-0.203,0.264,1.425,63.782,-140.625,70.740
-0.104,0.302,1.290,82.947,-125.000,63.782
-0.295,0.395,1.267,96.619,-125.671,53.406
-0.236,0.407,1.130,97.229,-109.985,44.800
-0.227,0.347,1.261,80.750,-116.394,36.499
-0.234,0.322,1.482,57.556,-137.329,32.227
-0.210,0.175,1.609,39.551,-137.634,28.320
-0.247,0.114,1.786,27.161,-128.540,26.489
-0.264,0.097,1.779,28.687,-111.328,23.987
-0.270,0.091,1.657,44.739,-93.445,16.602
-0.305,0.111,1.500,64.697,-82.092,7.690
-0.307,0.143,1.386,80.261,-76.904,-0.916
-0.298,0.153,1.316,91.309,-75.867,-10.071
-0.293,0.168,1.281,98.755,-76.660,-20.020
-0.302,0.166,1.282,100.830,-77.454,-29.602
-0.291,0.136,1.318,97.229,-76.904,-38.940
-0.274,0.054,1.398,86.975,-73.792,-46.448
-0.271,-0.025,1.476,70.984,-68.909,-50.598
-0.246,-0.140,1.614,26.367,-31.311,-63.904
-0.290,-0.155,1.607,29.053,-22.522,-66.895
-0.231,-0.111,1.535,36.926,-10.315,-74.585
-0.263,-0.095,1.479,44.617,-2.197,-82.886
0.016,-0.186,1.285,48.706,-48.584,-94.971
-0.441,-0.231,1.789,54.138,-131.348,-105.835
-0.252,-0.278,1.527,32.898,-31.921,-97.717
-0.330,-0.351,1.595,31.921,-22.766,-99.121
-0.297,-0.394,1.566,29.663,-5.554,-97.778
-0.332,-0.394,1.561,28.748,15.015,-95.703
-0.289,-0.386,1.526,29.724,39.246,-95.032
-0.277,-0.401,1.500,29.114,54.993,-95.947
-0.258,-0.435,1.441,25.208,65.796,-96.375
-0.257,-0.502,1.346,21.423,75.317,-96.313
-0.229,-0.546,1.247,19.897,82.458,-96.008
-0.186,-0.562,1.135,22.644,85.999,-94.971
-0.171,-0.523,1.069,27.832,77.515,-93.079
-0.161,-0.467,1.031,31.067,62.683,-92.041
-0.145,-0.438,0.997,28.625,56.335,-92.529
-0.117,-0.433,0.976,18.738,57.007,-92.102
-0.099,-0.447,0.951,3.174,58.472,-89.111
-0.107,-0.499,0.954,-13.977,55.786,-84.717
-0.115,-0.575,0.957,-27.832,51.819,-80.383
-0.122,-0.670,0.930,-33.508,50.354,-77.087
-0.127,-0.714,0.870,-33.630,50.964,-73.242
-0.124,-0.730,0.792,-28.625,51.697,-70.374
-0.106,-0.731,0.734,-22.888,49.805,-67.871
-0.089,-0.708,0.701,-20.996,46.570,-63.293
-0.051,-0.677,0.704,-21.729,42.542,-57.556
-0.045,-0.646,0.744,-23.987,34.668,-52.246
-0.049,-0.623,0.781,-27.283,27.588,-47.852
-0.060,-0.635,0.805,-30.212,24.414,-44.189
0.040,-0.619,0.808,-31.494,23.437,-40.222
-0.153,-0.661,0.872,-30.762,15.076,-30.701
-0.063,-0.657,0.827,-24.902,20.874,-34.485
-0.035,-0.694,0.820,-18.066,30.396,-31.311
-0.055,-0.635,0.827,-16.418,24.048,-21.973
-0.066,-0.562,0.817,-14.587,19.470,-15.320
-0.055,-0.544,0.828,-9.216,15.991,-14.038
-0.059,-0.529,0.860,-7.141,11.475,-12.634
-0.050,-0.498,0.864,-5.432,12.634,-9.460
-0.052,-0.470,0.854,-1.831,11.597,-6.348
-0.058,-0.439,0.852,0.671,9.399,-3.967
-0.056,-0.412,0.879,1.892,7.629,-2.441
-0.048,-0.391,0.884,3.113,7.263,-1.526
-0.049,-0.371,0.885,2.319,7.629,-0.305
-0.057,-0.356,0.892,0.366,6.775,1.160
-0.057,-0.347,0.892,-0.305,5.981,2.075
-0.060,-0.342,0.884,-0.488,5.737,2.991
-0.056,-0.333,0.880,-0.916,5.005,3.845
-0.063,-0.324,0.875,-0.488,3.662,4.944
-0.070,-0.309,0.873,-0.122,2.625,5.920
-0.073,-0.297,0.880,0.732,1.587,6.348
-0.073,-0.291,0.886,2.563,0.610,6.042
-0.073,-0.280,0.905,3.784,0.000,5.798
-0.073,-0.263,0.918,4.639,0.366,5.920
-0.070,-0.252,0.921,5.249,0.671,6.165
-0.075,-0.248,0.922,4.883,1.221,6.226
-0.074,-0.245,0.919,4.150,2.136,6.104
-0.080,-0.245,0.922,3.845,1.465,5.798
-0.081,-0.254,0.922,3.418,1.343,5.615
-0.081,-0.262,0.927,3.479,1.160,5.798
-0.086,-0.251,0.927,3.967,0.488,5.859
-0.087,-0.243,0.931,4.333,0.427,5.615
-0.083,-0.248,0.936,3.662,0.305,5.066
-0.087,-0.250,0.949,2.747,0.183,4.883
-0.088,-0.256,0.956,2.686,0.610,4.639
-0.087,-0.262,0.957,3.052,1.221,4.456
-0.089,-0.262,0.952,3.418,2.014,4.333
-0.090,-0.261,0.953,4.333,2.441,4.517
-0.087,-0.249,0.956,4.456,2.380,4.211
-0.083,-0.253,0.955,4.211,2.136,3.906
-0.084,-0.257,0.954,3.357,2.258,3.662
-0.086,-0.262,0.953,2.502,2.380,3.967
-0.084,-0.261,0.954,2.441,2.625,4.211
-0.082,-0.260,0.953,2.747,3.235,3.967
-0.077,-0.262,0.943,2.747,3.479,3.662
-0.077,-0.261,0.942,2.136,3.479,4.028
-0.078,-0.256,0.937,1.953,3.784,4.456
-0.076,-0.250,0.930,2.441,4.028,4.517
-0.073,-0.250,0.924,2.441,3.845,4.333
-0.071,-0.252,0.927,2.441,3.479,3.662
-0.068,-0.262,0.921,2.319,3.174,3.662
-0.069,-0.263,0.919,2.014,2.930,3.906
-0.067,-0.262,0.914,2.686,2.258,3.784
-0.064,-0.263,0.914,3.601,1.770,3.662
-0.065,-0.264,0.918,4.028,1.404,3.418
-0.062,-0.263,0.918,4.578,0.977,3.418
-0.056,-0.265,0.917,4.700,0.183,3.296
-0.062,-0.264,0.930,3.540,-1.160,3.845
-0.062,-0.264,0.934,2.380,-1.221,4.333
-0.059,-0.262,0.935,1.709,-0.854,4.028
-0.056,-0.259,0.939,0.916,-1.160,3.906
-0.055,-0.263,0.949,0.488,-1.404,3.723
-0.053,-0.255,0.948,1.038,-0.916,3.845
-0.055,-0.251,0.939,1.648,-0.183,3.845
-0.052,-0.253,0.928,2.014,-0.183,3.235
-0.054,-0.260,0.927,2.197,-0.793,2.991
-0.054,-0.258,0.934,2.014,-1.282,3.174
-0.054,-0.263,0.938,1.892,-1.404,3.174
-0.054,-0.267,0.934,1.770,-1.099,3.052
-0.055,-0.270,0.932,1.648,-0.854,3.174
-0.053,-0.274,0.936,1.892,-1.099,3.235
-0.052,-0.274,0.940,2.075,-0.916,3.174
-0.055,-0.272,0.936,2.441,-0.671,3.113
-0.052,-0.274,0.930,3.479,-0.244,2.930
-0.047,-0.277,0.924,3.723,-0.061,2.747
-0.049,-0.272,0.920,3.418,-0.244,3.235
-0.049,-0.271,0.922,3.113,-0.427,3.662
-0.049,-0.275,0.922,3.052,-0.305,3.601
-0.050,-0.277,0.916,3.052,-0.366,3.784
-0.048,-0.277,0.920,3.357,-0.671,3.662
-0.049,-0.275,0.924,3.845,-1.038,3.601
-0.046,-0.281,0.932,3.784,-0.732,4.028
-0.046,-0.287,0.934,4.028,-0.916,4.395
-0.047,-0.278,0.930,3.967,-0.793,4.700
-0.047,-0.277,0.922,3.479,-0.854,4.883
-0.047,-0.281,0.928,2.441,-1.099,5.127
-0.050,-0.275,0.931,1.221,-1.160,5.310
-0.106,0.426,1.453,59.326,8.423,-76.477
-0.123,0.397,1.475,54.504,14.282,-82.886
-0.138,0.338,1.492,50.049,20.996,-90.515
-0.143,0.240,1.508,46.814,27.344,-98.022
-0.151,0.152,1.506,46.021,33.142,-104.004
-0.160,0.055,1.492,48.889,38.513,-109.558
-0.196,-0.052,1.483,54.260,42.664,-115.173
-0.160,-0.085,1.446,58.411,50.781,-118.103
-0.203,-0.145,1.449,60.242,50.293,-121.826
-0.190,-0.227,1.425,57.922,57.007,-127.563
-0.161,-0.311,1.416,49.011,65.247,-130.798
-0.151,-0.389,1.413,38.391,67.200,-130.920
-0.147,-0.453,1.439,26.978,69.092,-130.005
-0.167,-0.530,1.459,17.090,72.327,-129.395
-0.166,-0.608,1.439,10.437,77.637,-128.418
-0.191,-0.675,1.412,7.812,83.496,-125.977
-0.187,-0.699,1.412,7.996,86.548,-124.146
-0.188,-0.689,1.385,8.606,89.233,-122.314
-0.190,-0.730,1.365,8.545,91.064,-120.667
-0.198,-0.795,1.429,6.653,93.872,-118.469
-0.223,-0.839,1.402,7.141,101.257,-114.502
-0.246,-0.873,1.364,9.583,109.924,-110.046
-0.248,-0.880,1.349,11.597,118.896,-105.896
-0.268,-0.868,1.313,15.259,126.587,-101.318
-0.271,-0.831,1.255,21.790,133.972,-98.572
-0.285,-0.839,1.200,28.809,139.221,-98.083
-0.319,-0.871,1.122,31.311,145.325,-95.398
-0.336,-0.911,1.025,31.189,153.442,-91.614
-0.310,-0.965,0.965,32.593,156.311,-88.379
-0.296,-1.027,0.923,33.875,155.579,-84.595
-0.367,-1.083,0.989,33.569,150.635,-73.425
-0.476,-1.105,1.031,38.757,143.127,-64.209
-0.489,-1.118,0.990,48.096,168.457,-60.730
-0.421,-1.148,0.947,60.059,194.397,-59.448
-0.405,-1.171,0.861,68.726,202.148,-53.894
-0.407,-1.219,0.737,72.815,193.726,-45.227
-0.420,-1.275,0.656,73.181,172.607,-37.842
-0.430,-1.358,0.638,71.472,153.015,-29.419
-0.442,-1.411,0.629,73.059,144.836,-18.372
-0.451,-1.421,0.571,81.848,146.179,-7.324
-0.437,-1.400,0.463,94.360,153.076,2.319
-0.396,-1.370,0.378,106.384,154.724,10.742
-0.334,-1.339,0.244,114.075,151.611,24.231
-0.323,-1.335,0.123,116.699,141.785,37.476
-0.286,-1.353,0.074,116.394,125.732,47.485
-0.251,-1.373,0.048,114.746,110.901,59.509
-0.250,-1.383,0.055,110.962,100.220,75.134
-0.225,-1.401,0.109,108.032,94.482,88.501
-0.186,-1.389,0.139,107.117,92.163,100.342
-0.167,-1.326,0.138,107.361,89.478,112.061
-0.141,-1.248,0.099,107.910,85.388,121.826
-0.139,-1.153,0.031,105.164,82.031,129.944
-0.153,-1.049,-0.050,98.206,77.454,136.902
-0.138,-1.010,-0.138,91.309,69.885,141.541
-0.141,-1.000,-0.186,84.106,58.289,146.179
-0.168,-0.972,-0.185,75.806,45.532,152.039
-0.182,-0.928,-0.162,69.092,32.471,158.936
-0.155,-0.908,-0.158,65.918,20.935,166.382
-0.145,-0.882,-0.140,61.951,9.521,172.913
-0.135,-0.818,-0.108,57.739,-1.221,180.115
-0.134,-0.719,-0.124,56.274,-10.315,185.547
-0.115,-0.655,-0.152,55.664,-20.081,187.561
-0.111,-0.617,-0.143,51.147,-30.762,189.331
-0.113,-0.573,-0.113,44.556,-41.260,191.406
-0.113,-0.536,-0.098,40.894,-50.415,191.589
-0.119,-0.492,-0.086,38.452,-58.228,192.017
-0.131,-0.415,-0.077,36.011,-65.613,192.627
-0.142,-0.338,-0.066,34.241,-72.388,192.261
-0.144,-0.283,-0.078,32.227,-79.224,191.467
-0.146,-0.233,-0.050,29.114,-86.914,191.223
-0.156,-0.160,-0.031,26.123,-94.360,192.017
-0.167,-0.083,-0.014,27.283,-101.440,191.101
-0.165,-0.001,0.007,32.166,-108.276,187.195
-0.183,0.079,0.035,37.292,-115.051,183.105
-0.193,0.166,0.082,41.504,-121.582,178.955
-0.202,0.226,0.121,46.387,-127.319,172.913
-0.208,0.250,0.170,51.941,-132.629,166.321
-0.214,0.246,0.195,57.312,-136.902,160.156
-0.233,0.243,0.215,63.843,-140.869,155.701
-0.235,0.301,0.219,72.144,-144.836,150.818
-0.217,0.386,0.224,81.299,-148.193,141.663
-0.198,0.421,0.281,85.144,-153.442,132.568
-0.182,0.453,0.386,81.848,-158.752,126.343
-0.154,0.463,0.455,79.468,-161.682,120.117
-0.135,0.428,0.476,80.444,-162.537,113.220
-0.151,0.381,0.471,80.139,-163.330,108.521
-0.159,0.312,0.529,78.247,-165.527,106.018
-0.134,0.265,0.636,74.768,-166.992,105.713
-0.141,0.295,0.745,72.510,-167.053,104.858
-0.115,0.307,0.841,74.402,-165.771,98.755
-0.103,0.281,0.928,74.585,-163.147,92.102
-0.101,0.273,0.972,71.045,-158.936,87.952
-0.117,0.212,0.988,67.078,-154.785,83.130
-0.083,0.134,1.010,64.697,-151.123,78.735
-0.059,0.097,1.012,67.871,-146.729,73.853
-0.060,0.108,0.976,77.942,-142.029,68.176
-0.064,0.130,0.971,90.393,-138.916,61.157
-0.085,0.128,0.941,100.037,-139.587,52.551
-0.106,0.106,0.977,103.577,-142.578,44.556
-0.026,0.150,1.000,99.976,-141.479,39.368
-0.166,0.083,1.091,97.290,-152.771,30.334
-0.065,-0.012,1.206,86.121,-141.724,23.315
-0.077,-0.008,1.423,80.505,-148.499,20.996
-0.089,0.021,1.481,92.468,-145.691,12.573
-0.084,0.038,1.418,111.816,-131.531,0.793
-0.140,0.075,1.321,122.498,-121.704,-8.362
-0.150,0.070,1.251,120.544,-116.089,-19.104
-0.136,0.019,1.309,107.178,-115.662,-28.931
-0.149,-0.035,1.475,83.923,-117.737,-33.630
-0.117,-0.116,1.717,57.983,-117.249,-37.781
-0.085,-0.176,1.903,35.645,-108.215,-40.100
-0.111,-0.191,1.972,19.165,-91.309,-40.344
-0.123,-0.227,1.921,8.789,-70.435,-40.955
-0.121,-0.233,1.852,5.554,-51.697,-44.006
-0.117,-0.251,1.703,9.888,-37.415,-49.561
-0.102,-0.176,1.676,18.250,-31.006,-56.641
-0.139,-0.173,1.654,27.527,-40.649,-68.054
-0.185,-0.208,1.738,27.527,-47.668,-73.303
-0.045,-0.253,1.714,10.559,-7.568,-75.134
-0.102,-0.485,1.894,-17.700,2.380,-75.745
-0.133,-0.495,1.882,-19.348,11.108,-75.073
-0.149,-0.497,1.818,-4.761,1.099,-83.435
-0.134,-0.521,1.793,12.085,0.305,-90.332
-0.052,-0.523,1.682,13.489,37.781,-90.088
-0.044,-0.523,1.661,16.724,44.800,-91.370
-0.021,-0.540,1.588,20.691,46.692,-93.933
-0.003,-0.569,1.451,17.639,58.044,-94.543
-0.011,-0.610,1.311,9.766,66.589,-93.140
-0.021,-0.634,1.205,2.625,66.040,-91.980
0.025,-0.624,1.064,-3.845,66.772,-90.027
0.030,-0.647,0.976,-10.376,62.805,-87.524
0.046,-0.629,0.952,-15.015,50.293,-85.754
0.048,-0.634,0.932,-14.587,41.016,-85.083
0.050,-0.628,0.930,-13.245,38.330,-84.045
0.083,-0.622,0.929,-11.353,36.804,-83.557
0.108,-0.674,0.943,-6.775,32.776,-84.534
0.127,-0.726,0.943,-4.333,29.541,-82.214
0.120,-0.708,0.909,-3.540,27.954,-78.003
0.127,-0.703,0.821,-4.456,30.945,-74.768
0.116,-0.702,0.746,-11.719,31.799,-70.007
0.122,-0.759,0.727,-24.841,29.907,-64.941
0.110,-0.804,0.783,-39.001,27.893,-56.091
0.115,-0.817,0.799,-44.495,26.917,-49.438
0.118,-0.789,0.817,-41.260,29.846,-43.396
0.122,-0.750,0.803,-34.912,30.945,-39.551
0.133,-0.722,0.776,-30.212,30.151,-36.377
0.129,-0.693,0.785,-27.771,25.269,-32.532
0.127,-0.644,0.803,-25.513,20.813,-28.870
0.122,-0.637,0.804,-24.109,17.944,-26.367
0.121,-0.621,0.821,-25.391,15.930,-23.743
0.117,-0.605,0.830,-26.855,14.282,-20.569
0.099,-0.585,0.830,-27.283,13.611,-17.639
0.094,-0.573,0.825,-27.039,13.611,-15.198
0.090,-0.556,0.837,-25.024,12.817,-13.489
0.090,-0.530,0.832,-21.362,12.573,-12.085
0.085,-0.501,0.837,-18.066,11.841,-10.559
0.088,-0.478,0.832,-15.503,11.353,-9.583
0.092,-0.459,0.830,-13.733,10.803,-7.996
0.089,-0.433,0.845,-12.024,9.827,-6.165
0.084,-0.390,0.846,-10.681,9.766,-5.066
0.083,-0.366,0.827,-12.573,10.742,-4.517
0.073,-0.382,0.815,-17.883,10.254,-3.662
0.070,-0.405,0.817,-23.682,8.667,-2.502
0.066,-0.419,0.831,-25.940,6.775,-1.343
0.059,-0.417,0.835,-24.658,5.188,-0.183
0.056,-0.390,0.845,-21.179,4.333,0.732
0.055,-0.367,0.863,-16.541,2.502,0.549
0.064,-0.360,0.887,-12.939,0.671,0.244
0.064,-0.346,0.910,-11.536,-0.305,0.366
0.063,-0.337,0.940,-10.315,-1.160,0.488
0.059,-0.339,0.944,-8.728,-0.671,0.488
0.052,-0.342,0.929,-5.371,0.671,0.000
0.051,-0.338,0.906,-0.671,1.526,-0.671
0.050,-0.329,0.880,3.174,1.587,-1.099
0.047,-0.324,0.868,4.089,0.977,-1.160
0.050,-0.329,0.868,3.052,-0.366,-0.916
0.049,-0.327,0.888,0.977,-1.831,-0.305
0.052,-0.324,0.907,-1.160,-2.686,0.427
0.053,-0.331,0.935,-2.747,-2.808,0.977
0.057,-0.330,0.957,-2.991,-2.258,1.526
0.058,-0.330,0.962,-1.587,-0.793,1.526
0.060,-0.322,0.950,0.366,0.549,1.404
0.059,-0.315,0.936,1.404,1.343,1.404
0.054,-0.319,0.911,1.770,1.953,1.343
0.050,-0.327,0.895,1.770,1.892,1.099
0.051,-0.337,0.894,1.404,0.854,1.160
0.048,-0.340,0.898,1.831,-0.610,1.465
0.039,-0.334,0.906,2.808,-1.099,1.953
0.053,-0.325,0.902,3.357,1.404,1.892
0.053,-0.323,0.911,3.113,2.136,2.258
0.069,-0.329,0.930,2.563,0.977,2.808
0.072,-0.324,0.947,2.075,-0.366,3.662
0.073,-0.317,0.936,3.052,-1.160,4.211
0.067,-0.309,0.932,3.845,-3.357,4.761
0.064,-0.299,0.928,3.784,-4.517,5.066
0.064,-0.302,0.927,2.869,-3.418,4.944
0.068,-0.295,0.937,1.160,-1.465,4.700
0.066,-0.301,0.944,0.366,0.916,4.639
0.079,-0.305,0.945,0.427,2.014,4.333
0.075,-0.299,0.941,1.282,0.061,4.578
0.068,-0.296,0.939,2.075,-2.869,4.517
0.062,-0.298,0.941,2.319,-4.822,4.395
0.059,-0.301,0.942,1.160,-4.272,4.456
0.058,-0.307,0.946,0.061,-3.540,4.761
0.061,-0.311,0.945,-0.610,-3.052,5.127
0.054,-0.308,0.944,-1.282,-2.686,5.554
0.050,-0.307,0.942,-1.709,-2.380,5.676
0.056,-0.312,0.929,-2.563,-1.831,5.859
0.028,-0.295,0.939,-4.517,-1.282,6.104
0.043,-0.289,0.922,-6.226,1.160,6.226
0.056,-0.290,0.927,-7.568,2.258,5.737
0.060,-0.293,0.938,-8.240,0.610,5.493
0.049,-0.291,0.957,-7.263,-2.441,5.249
0.053,-0.293,0.947,-5.188,-2.380,5.005
0.055,-0.292,0.947,-3.784,-1.709,4.700
0.058,-0.285,0.947,-3.296,-1.404,4.333
0.057,-0.284,0.951,-3.357,-0.916,3.906
0.054,-0.282,0.955,-4.089,0.061,3.662
0.049,-0.278,0.958,-4.822,0.977,3.784
0.051,-0.284,0.942,-4.517,2.136,3.845
0.053,-0.286,0.936,-4.395,2.991,3.723
0.058,-0.287,0.941,-4.211,3.235,3.540
0.057,-0.281,0.939,-4.456,3.845,3.784
0.052,-0.270,0.939,-4.089,3.174,3.479
0.069,-0.255,0.933,-3.357,3.601,3.113
0.065,-0.251,0.928,-2.686,3.601,2.563
0.066,-0.249,0.926,-2.441,3.113,2.197
0.074,-0.256,0.933,-2.869,2.686,1.953
0.071,-0.259,0.946,-3.052,1.099,1.953
0.064,-0.261,0.937,-2.441,0.977,1.770
0.066,-0.266,0.920,-1.099,3.174,0.854
0.066,-0.281,0.912,0.366,3.174,0.244
0.065,-0.283,0.912,1.526,2.991,0.305
0.064,-0.279,0.909,2.991,2.380,0.305
0.070,-0.281,0.914,3.479,2.502,0.244
0.068,-0.278,0.924,2.747,2.380,0.488
0.067,-0.268,0.928,2.625,2.319,0.305
0.067,-0.272,0.928,2.869,2.686,-0.366
-0.067,-1.027,1.040,106.934,71.289,-80.444
-0.082,-1.052,1.011,107.727,75.378,-74.463
-0.081,-1.086,0.962,112.976,78.430,-68.787
-0.088,-1.079,0.935,118.103,79.041,-64.575
-0.071,-1.075,0.902,120.483,79.407,-61.279
-0.061,-1.061,0.911,118.896,80.322,-58.167
-0.045,-1.052,0.911,114.014,84.717,-55.664
-0.037,-1.021,0.901,106.384,91.614,-52.673
-0.039,-1.003,0.851,95.520,100.037,-50.232
-0.027,-1.014,0.820,80.078,107.422,-48.035
-0.046,-0.972,0.813,62.683,112.427,-44.189
0.077,-0.893,0.746,46.936,117.676,-41.443
-0.039,-0.811,0.823,31.372,113.098,-36.926
0.001,-0.785,0.735,15.564,126.892,-40.222
0.057,-0.791,0.735,1.526,133.301,-44.312
-0.101,-0.806,0.703,-12.085,131.775,-39.124
-0.110,-0.855,0.618,-17.395,141.785,-43.518
-0.118,-0.901,0.610,-10.559,146.240,-49.377
-0.160,-0.877,0.558,1.770,148.865,-51.880
-0.209,-0.852,0.495,16.846,148.560,-55.786
-0.226,-0.883,0.409,28.931,148.315,-59.143
-0.304,-0.984,0.356,35.034,144.226,-60.730
-0.362,-1.104,0.351,40.710,138.855,-60.486
-0.413,-1.232,0.360,50.964,135.132,-58.594
-0.458,-1.298,0.412,63.782,133.545,-54.443
-0.487,-1.376,0.452,75.806,135.864,-49.988
-0.530,-1.440,0.431,82.397,141.174,-43.884
-0.580,-1.524,0.354,82.703,146.545,-36.865
-0.584,-1.635,0.263,77.759,151.367,-29.724
-0.581,-1.721,0.192,70.740,153.381,-18.616
-0.583,-1.773,0.103,65.247,154.480,-4.700
-0.637,-1.861,0.023,61.707,154.968,9.766
-0.503,-1.872,-0.065,59.265,151.306,24.292
-0.583,-1.831,-0.055,61.157,137.207,44.800
-0.590,-1.706,-0.131,63.232,153.381,58.899
-0.446,-1.624,-0.287,67.749,179.016,66.956
-0.331,-1.604,-0.415,70.618,168.945,71.411
-0.298,-1.602,-0.449,71.899,115.417,74.402
-0.318,-1.620,-0.412,76.233,54.260,77.454
-0.364,-1.572,-0.402,79.834,21.301,86.426
-0.360,-1.510,-0.441,79.834,20.874,95.825
-0.291,-1.481,-0.444,76.721,28.259,102.539
-0.231,-1.396,-0.409,70.801,28.625,110.352
-0.206,-1.326,-0.398,64.453,21.484,118.286
-0.194,-1.237,-0.363,55.542,12.512,125.488
-0.193,-1.135,-0.342,46.143,7.385,132.141
-0.192,-1.034,-0.361,39.551,6.287,137.329
-0.190,-0.938,-0.386,33.691,5.371,140.991
-0.177,-0.863,-0.394,27.527,3.235,143.677
-0.157,-0.806,-0.375,22.156,-0.061,145.630
-0.140,-0.786,-0.347,19.287,-4.761,147.095
-0.110,-0.755,-0.301,20.447,-11.292,148.132
-0.091,-0.703,-0.266,24.658,-19.043,147.705
-0.068,-0.641,-0.262,29.541,-27.588,146.362
-0.034,-0.585,-0.256,31.372,-37.048,144.226
-0.002,-0.564,-0.237,28.992,-45.410,142.334
0.027,-0.546,-0.198,24.170,-51.880,142.517
0.043,-0.516,-0.177,18.982,-56.152,143.677
0.042,-0.490,-0.168,15.686,-58.838,145.020
0.048,-0.448,-0.162,14.099,-62.500,145.386
0.057,-0.424,-0.168,15.198,-67.078,143.311
0.057,-0.416,-0.178,18.616,-73.120,140.930
0.036,-0.394,-0.171,22.827,-79.468,139.465
0.030,-0.338,-0.174,28.320,-84.961,137.207
0.044,-0.304,-0.167,33.691,-90.576,132.568
0.062,-0.285,-0.124,35.706,-98.206,128.479
0.070,-0.274,-0.078,33.691,-106.140,125.977
0.061,-0.278,-0.051,31.677,-113.525,124.451
0.032,-0.273,-0.058,29.968,-120.544,123.901
-0.012,-0.260,-0.083,30.029,-126.831,122.864
-0.045,-0.266,-0.063,31.189,-133.545,120.728
-0.079,-0.248,-0.045,33.875,-140.015,118.408
-0.106,-0.225,-0.033,39.063,-145.569,114.807
-0.129,-0.197,-0.006,44.678,-150.757,110.840
-0.157,-0.176,0.064,48.767,-155.396,107.727
-0.162,-0.154,0.084,53.101,-157.715,106.079
-0.194,-0.113,0.082,56.274,-160.034,104.614
-0.195,-0.110,0.107,59.387,-164.856,101.624
-0.186,-0.061,0.160,60.913,-170.410,98.633
-0.165,-0.057,0.244,59.509,-175.964,95.886
-0.135,-0.041,0.376,54.626,-180.603,93.445
-0.126,-0.047,0.461,50.415,-182.739,91.248
-0.131,-0.058,0.531,46.753,-184.021,89.905
-0.143,-0.045,0.580,44.189,-184.082,89.661
-0.166,-0.028,0.613,45.044,-183.960,88.379
-0.165,-0.006,0.656,49.438,-184.021,85.022
-0.161,0.017,0.683,56.702,-183.899,79.529
-0.129,0.029,0.802,63.965,-184.387,73.486
-0.110,0.059,0.856,69.763,-181.580,67.566
-0.114,0.068,0.817,74.707,-176.025,60.852
-0.116,0.020,0.779,75.989,-172.180,52.734
-0.121,-0.032,0.749,75.012,-170.471,46.143
-0.116,-0.041,0.751,73.914,-170.349,40.710
-0.086,-0.068,0.824,73.975,-171.326,35.583
-0.049,-0.118,0.972,70.618,-171.631,32.532
-0.039,-0.142,1.107,68.726,-169.495,29.175
0.020,-0.214,1.209,70.557,-164.185,22.522
0.078,-0.227,1.380,68.787,-158.630,18.799
0.133,-0.202,1.469,69.885,-149.170,15.015
0.199,-0.156,1.520,76.355,-135.803,9.521
0.237,-0.039,1.486,82.581,-120.728,3.906
0.237,0.008,1.358,86.426,-105.408,-3.357
0.220,0.016,1.248,84.229,-94.910,-12.024
0.201,-0.005,1.160,77.881,-88.745,-20.020
0.156,-0.126,1.154,69.153,-88.623,-28.137
0.141,-0.240,1.285,61.035,-91.125,-34.729
0.110,-0.290,1.385,61.707,-88.501,-41.504
0.105,-0.327,1.347,72.510,-74.890,-48.218
0.106,-0.357,1.286,81.421,-56.335,-54.443
0.098,-0.373,1.183,88.745,-48.462,-62.805
0.057,-0.397,1.001,94.482,-42.603,-71.289
-0.011,-0.459,0.872,93.018,-44.312,-79.346
-0.054,-0.578,0.825,84.167,-47.852,-86.487
-0.097,-0.726,0.808,73.914,-49.255,-90.759
-0.141,-0.890,0.814,66.223,-51.758,-92.407
-0.160,-1.020,0.866,62.073,-49.988,-91.064
-0.175,-1.072,0.916,64.575,-45.471,-88.745
-0.168,-1.124,0.968,72.388,-38.635,-88.440
-0.129,-1.107,1.029,78.857,-32.043,-89.905
-0.091,-1.206,1.094,72.632,-21.423,-90.332
-0.083,-1.180,1.120,62.195,-14.038,-86.365
-0.100,-1.147,1.063,51.819,-4.028,-82.336
-0.107,-1.086,1.005,38.330,5.371,-79.468
-0.098,-1.082,0.934,21.240,12.817,-77.759
-0.075,-1.058,0.944,1.038,16.418,-74.829
-0.019,-1.071,1.004,-18.433,18.982,-72.754
0.023,-1.058,1.110,-35.217,22.095,-70.313
0.073,-1.011,1.174,-47.791,27.893,-67.810
0.170,-0.965,1.189,-57.068,38.696,-67.505
0.030,-0.976,1.289,-65.918,32.715,-68.787
0.085,-0.969,1.212,-74.585,36.255,-69.092
0.094,-0.982,1.217,-83.313,58.655,-66.956
0.023,-0.947,1.180,-87.341,61.584,-64.270
0.119,-0.974,1.169,-82.275,57.373,-69.397
0.040,-1.063,1.235,-70.007,42.114,-74.463
-0.021,-1.142,1.195,-56.885,55.420,-75.256
0.119,-1.203,1.159,-34.668,62.622,-76.355
0.051,-1.169,1.133,-13.855,83.801,-72.083
0.094,-1.096,1.009,9.033,93.140,-70.801
0.112,-1.078,0.898,24.963,93.872,-72.021
0.093,-1.044,0.836,27.954,80.017,-70.313
0.065,-1.046,0.810,20.813,68.176,-67.444
0.057,-1.075,0.781,9.399,68.054,-64.392
0.056,-1.097,0.741,-4.883,73.730,-59.021
0.062,-1.116,0.674,-17.395,76.477,-52.917
0.048,-1.124,0.635,-24.231,73.669,-47.302
0.033,-1.118,0.582,-25.696,72.021,-42.358
0.027,-1.106,0.533,-22.705,71.228,-38.452
0.030,-1.066,0.462,-17.151,70.984,-35.889
0.026,-1.023,0.397,-12.634,69.153,-33.813
0.031,-0.989,0.379,-13.916,63.293,-31.738
0.043,-0.982,0.421,-20.996,55.908,-29.236
0.067,-0.969,0.475,-30.090,50.598,-26.184
0.045,-0.967,0.556,-38.330,45.227,-21.179
0.066,-0.978,0.602,-44.250,44.067,-18.799
0.068,-0.965,0.666,-45.959,45.898,-15.442
0.058,-0.927,0.669,-42.725,45.898,-12.756
0.066,-0.909,0.637,-36.682,48.035,-11.536
0.063,-0.866,0.596,-30.945,49.561,-9.766
0.068,-0.821,0.558,-23.865,49.011,-8.606
0.080,-0.803,0.528,-14.099,44.250,-6.592
0.069,-0.743,0.487,-11.047,40.466,-4.517
0.075,-0.720,0.473,-8.911,36.926,-3.967
0.073,-0.708,0.489,-9.949,32.715,-3.052
0.073,-0.711,0.499,-12.451,29.358,-2.319
0.079,-0.715,0.532,-15.930,26.428,-1.648
0.084,-0.722,0.557,-18.066,24.658,-0.977
0.085,-0.733,0.574,-18.311,23.865,0.122
0.084,-0.712,0.589,-16.357,23.132,1.587
0.087,-0.693,0.589,-12.268,22.278,1.770
0.094,-0.683,0.593,-9.094,20.508,1.282
0.102,-0.676,0.609,-7.080,17.761,1.038
0.108,-0.684,0.623,-5.493,15.442,1.099
0.104,-0.689,0.631,-4.761,13.916,1.343
0.102,-0.690,0.637,-2.930,12.329,1.160
0.102,-0.698,0.622,0.122,10.620,0.610
0.100,-0.687,0.626,1.160,8.850,0.671
0.104,-0.684,0.643,0.854,6.836,0.732
0.106,-0.694,0.652,-0.488,5.188,1.160
0.103,-0.696,0.666,-3.052,4.089,2.197
0.104,-0.689,0.666,-3.906,3.540,2.808
0.109,-0.686,0.667,-3.357,2.502,3.052
0.114,-0.674,0.685,-3.418,1.221,3.662
0.108,-0.670,0.691,-2.502,0.488,3.967
0.124,-0.676,0.711,-1.221,-0.549,3.845
0.112,-0.661,0.724,-0.488,-1.221,3.967
0.119,-0.657,0.752,0.854,-1.587,3.052
0.121,-0.661,0.749,2.502,-0.549,2.686
0.118,-0.651,0.747,3.418,0.305,2.686
0.119,-0.648,0.737,3.540,1.160,2.380
0.116,-0.648,0.721,2.808,1.892,2.014
0.115,-0.647,0.709,1.282,2.075,2.014
0.109,-0.653,0.703,-0.793,2.014,2.502
0.101,-0.644,0.703,-2.869,1.282,2.869
0.105,-0.658,0.716,-3.235,0.366,2.197
0.110,-0.665,0.728,-2.136,-0.427,1.831
0.107,-0.659,0.729,-0.122,-0.732,2.075
0.106,-0.658,0.723,1.709,-0.671,2.136
0.106,-0.654,0.725,1.770,-0.793,2.502
0.103,-0.650,0.740,0.488,-1.099,3.052
0.106,-0.658,0.753,0.488,-1.404,2.747
0.105,-0.660,0.750,1.648,-0.671,2.625
0.105,-0.656,0.737,3.418,-0.061,2.747
0.102,-0.652,0.723,4.456,-0.122,2.563
0.088,-0.643,0.710,4.272,-0.977,2.930
0.089,-0.654,0.726,3.174,-2.197,2.686
0.096,-0.673,0.750,2.625,-2.991,1.648
0.100,-0.672,0.763,2.930,-2.808,1.648
0.099,-0.670,0.760,4.211,-2.197,1.831
0.103,-0.667,0.746,4.517,-1.648,1.892
0.102,-0.660,0.742,3.235,-1.099,2.625
0.103,-0.666,0.747,1.526,-1.160,3.113
0.105,-0.665,0.754,0.732,-1.160,3.601
0.104,-0.664,0.745,1.221,-0.732,3.540
0.104,-0.668,0.732,1.892,-0.122,3.418
0.100,-0.665,0.729,2.075,-0.427,3.540
0.099,-0.666,0.735,1.831,-0.854,3.662
0.103,-0.667,0.740,1.709,-0.732,3.357
0.104,-0.668,0.737,1.587,-0.305,3.540
0.102,-0.670,0.729,1.404,0.122,3.906
0.103,-0.671,0.720,0.977,0.305,4.578
0.100,-0.666,0.717,0.854,0.122,5.188
0.101,-0.663,0.718,1.099,-0.916,5.066
0.098,-0.661,0.719,0.977,-1.221,5.371
0.091,-0.652,0.719,1.099,-0.977,5.493
0.098,-0.650,0.724,1.038,-0.488,5.188
0.100,-0.651,0.731,0.488,-0.366,4.883
0.097,-0.646,0.729,-0.305,-0.122,5.127
0.099,-0.652,0.719,-0.488,0.488,4.944
0.099,-0.651,0.726,-0.488,0.305,4.944
0.098,-0.648,0.722,-0.183,0.244,5.127
0.100,-0.646,0.719,0.732,0.366,5.005
0.099,-0.641,0.713,1.282,0.183,4.944
0.097,-0.642,0.711,1.404,-0.183,4.944
0.095,-0.653,0.717,1.709,-0.854,4.944
0.094,-0.649,0.717,3.052,-1.160,5.005
0.093,-0.642,0.714,4.883,-0.977,5.066
0.094,-0.639,0.709,6.165,-0.671,5.127
0.067,-0.435,1.585,8.667,21.912,-53.528
0.065,-0.504,1.549,7.751,30.884,-58.716
0.077,-0.558,1.508,9.277,36.865,-63.599
0.086,-0.609,1.457,12.573,42.297,-68.176
0.128,-0.696,1.434,15.320,46.997,-72.021
0.129,-0.768,1.426,15.869,49.683,-72.693
0.146,-0.840,1.393,16.052,52.734,-70.923
0.140,-0.867,1.371,14.771,54.504,-68.298
0.160,-0.858,1.400,10.864,54.993,-66.895
0.167,-0.891,1.424,6.897,56.946,-66.956
0.165,-0.918,1.424,4.211,61.218,-67.505
0.177,-0.973,1.395,2.319,68.481,-67.261
0.134,-1.020,1.389,5.493,77.148,-66.101
0.112,-1.045,1.323,11.047,84.351,-66.589
0.073,-1.060,1.279,16.968,90.332,-67.017
0.030,-1.096,1.205,24.597,94.543,-66.772
-0.008,-1.089,1.101,30.945,98.999,-66.467
-0.032,-1.089,1.023,35.278,101.807,-66.162
-0.044,-1.134,1.021,38.757,103.577,-65.125
-0.060,-1.145,0.971,43.274,108.154,-62.439
-0.095,-1.113,0.864,48.950,113.892,-59.265
-0.125,-1.078,0.785,51.941,116.943,-56.274
-0.146,-1.101,0.767,48.584,123.047,-52.246
-0.141,-1.132,0.834,42.175,130.188,-48.279
-0.153,-1.159,0.838,40.710,136.536,-45.044
-0.192,-1.171,0.788,42.358,142.273,-41.443
-0.238,-1.170,0.704,44.495,147.400,-38.147
-0.286,-1.219,0.586,46.204,153.320,-34.851
-0.311,-1.274,0.525,44.678,157.959,-30.090
-0.357,-1.331,0.497,42.419,160.034,-24.658
-0.375,-1.376,0.491,41.138,163.574,-18.860
-0.387,-1.380,0.495,41.016,169.189,-12.817
-0.415,-1.387,0.475,40.710,174.561,-5.493
-0.421,-1.418,0.454,37.781,178.467,0.916
-0.456,-1.442,0.367,35.339,180.298,7.935
-0.464,-1.444,0.308,31.555,174.438,17.151
-0.525,-1.397,0.235,23.926,168.518,28.259
-0.520,-1.382,0.138,17.456,176.880,34.058
-0.460,-1.375,0.055,12.634,180.176,39.185
-0.432,-1.356,-0.050,9.827,168.213,45.288
-0.427,-1.312,-0.110,13.184,141.602,49.133
-0.422,-1.280,-0.193,23.437,119.873,51.636
-0.412,-1.243,-0.299,33.936,111.694,55.847
-0.400,-1.204,-0.399,42.664,109.863,61.340
-0.379,-1.228,-0.471,50.354,107.422,67.261
-0.356,-1.251,-0.488,54.993,102.173,75.073
-0.322,-1.263,-0.468,61.096,95.886,83.740
-0.280,-1.237,-0.455,70.679,89.844,91.919
-0.248,-1.178,-0.444,81.604,83.740,99.487
-0.225,-1.093,-0.461,90.698,78.186,106.812
-0.208,-1.017,-0.507,95.947,74.646,113.037
-0.185,-0.949,-0.559,96.863,69.824,118.347
-0.175,-0.872,-0.592,95.459,61.523,123.108
-0.150,-0.824,-0.611,94.788,48.401,125.000
-0.152,-0.806,-0.637,93.445,30.396,126.343
-0.146,-0.746,-0.625,92.163,5.798,128.052
-0.152,-0.724,-0.628,92.468,-20.447,129.395
-0.179,-0.680,-0.568,92.712,-44.067,131.287
-0.160,-0.641,-0.529,94.299,-60.608,133.423
-0.157,-0.588,-0.500,94.971,-73.120,135.864
-0.162,-0.514,-0.476,91.553,-84.412,138.123
-0.160,-0.473,-0.445,85.205,-95.642,138.794
-0.160,-0.438,-0.412,76.965,-106.567,138.184
-0.172,-0.424,-0.383,68.909,-117.310,137.207
-0.170,-0.429,-0.305,63.843,-128.662,135.010
-0.165,-0.374,-0.248,62.744,-138.916,132.690
-0.189,-0.302,-0.245,64.026,-148.804,130.249
-0.200,-0.255,-0.227,63.049,-159.668,127.136
-0.213,-0.209,-0.172,58.044,-171.204,124.512
-0.212,-0.165,-0.072,51.941,-180.176,122.803
-0.180,-0.098,0.017,47.607,-185.303,119.629
-0.158,-0.019,0.064,44.495,-186.829,115.845
-0.142,0.050,0.102,41.138,-187.927,112.305
-0.134,0.102,0.131,38.086,-188.171,107.788
-0.135,0.131,0.132,37.354,-187.927,101.685
-0.133,0.101,0.164,40.039,-187.988,93.933
-0.134,0.139,0.189,44.556,-188.232,86.487
-0.127,0.114,0.200,52.063,-189.209,77.393
-0.117,0.095,0.243,58.044,-192.627,68.665
-0.098,0.017,0.367,61.890,-197.388,61.340
-0.066,0.011,0.541,64.514,-201.355,57.983
-0.044,0.026,0.652,70.923,-199.707,54.077
-0.020,0.039,0.691,76.599,-194.824,45.410
0.017,0.024,0.702,74.707,-189.819,36.682
0.023,-0.020,0.784,67.139,-187.805,32.532
0.005,-0.066,0.832,63.110,-184.875,30.518
0.018,-0.117,0.911,66.956,-180.542,26.489
0.034,-0.159,0.974,76.050,-174.500,21.667
0.053,-0.191,1.021,88.135,-168.579,16.602
0.103,-0.195,1.106,100.647,-161.621,9.766
0.139,-0.178,1.055,111.450,-151.978,1.099
0.130,-0.209,0.997,115.356,-143.066,-4.578
0.120,-0.182,0.949,111.877,-135.742,-8.240
0.089,-0.195,0.882,109.558,-128.662,-12.085
0.056,-0.211,0.841,107.483,-122.925,-16.052
0.042,-0.230,0.850,105.530,-118.835,-20.691
0.055,-0.280,0.874,107.056,-115.479,-27.771
0.038,-0.374,0.962,112.000,-117.065,-38.208
0.147,-0.464,1.019,116.760,-110.229,-48.706
0.049,-0.592,1.160,123.657,-112.183,-61.951
0.132,-0.692,1.095,131.897,-97.534,-74.036
0.113,-0.699,1.035,136.230,-78.125,-77.148
0.025,-0.630,0.924,136.169,-81.726,-78.613
-0.025,-0.656,0.842,129.639,-81.116,-82.886
-0.030,-0.746,0.778,117.859,-79.346,-86.975
-0.068,-0.832,0.761,102.722,-80.078,-86.914
-0.085,-0.939,0.795,87.219,-79.834,-87.402
-0.079,-1.098,0.875,71.594,-78.979,-89.783
-0.058,-1.264,1.054,54.138,-78.552,-90.637
-0.026,-1.349,1.242,39.001,-73.792,-88.135
-0.001,-1.403,1.316,28.076,-61.951,-82.947
-0.012,-1.371,1.305,18.616,-47.485,-75.684
-0.034,-1.293,1.247,15.442,-33.142,-70.740
-0.044,-1.263,1.172,18.860,-20.447,-70.557
-0.036,-1.290,1.163,21.362,-13.306,-72.876
0.024,-1.269,1.241,22.156,-10.010,-74.768
0.155,-1.239,1.159,22.705,-0.427,-77.332
-0.033,-1.297,1.326,17.639,-10.925,-78.735
0.014,-1.315,1.265,5.005,0.366,-76.294
0.006,-1.325,1.217,-14.221,32.654,-63.477
0.111,-1.330,1.148,-16.235,35.522,-65.002
0.069,-1.320,1.234,-7.996,15.442,-71.106
-0.138,-1.318,1.243,-6.470,15.381,-71.228
-0.007,-1.319,1.074,-10.803,43.701,-65.491
-0.021,-1.350,1.032,-17.334,72.937,-59.753
0.010,-1.305,0.944,-21.667,90.820,-53.711
0.017,-1.264,0.832,-20.691,98.999,-51.636
0.043,-1.252,0.682,-19.836,97.900,-51.941
0.020,-1.236,0.566,-22.217,84.534,-51.697
-0.008,-1.230,0.454,-25.879,72.449,-50.171
-0.013,-1.253,0.333,-29.907,69.519,-48.462
0.012,-1.259,0.272,-33.691,67.871,-45.227
0.009,-1.183,0.256,-33.142,59.204,-39.856
0.011,-1.116,0.261,-26.245,48.828,-38.330
0.039,-1.123,0.323,-19.836,40.894,-39.795
0.074,-1.137,0.418,-17.578,37.354,-38.879
0.083,-1.095,0.451,-15.747,37.598,-34.973
0.094,-1.069,0.445,-13.733,39.185,-32.593
0.103,-1.046,0.436,-17.090,40.833,-29.724
0.092,-1.012,0.399,-25.024,43.762,-25.085
0.073,-0.994,0.359,-34.790,45.471,-20.508
0.065,-0.986,0.337,-45.410,45.410,-17.273
0.058,-1.044,0.317,-54.932,43.579,-13.916
0.041,-1.063,0.338,-60.669,39.185,-9.277
0.025,-1.053,0.365,-56.396,34.363,-5.798
0.036,-1.058,0.389,-43.701,30.701,-5.371
0.044,-1.029,0.427,-28.564,26.611,-4.700
0.048,-0.997,0.433,-12.878,24.719,-3.906
0.050,-0.943,0.430,-1.038,23.437,-2.930
0.056,-0.885,0.431,5.005,21.790,-2.380
0.044,-0.845,0.438,4.883,20.142,-1.709
0.045,-0.841,0.463,0.183,19.043,-1.404
0.032,-0.850,0.480,-5.371,18.860,-1.038
0.022,-0.873,0.473,-10.864,19.226,0.061
0.015,-0.875,0.469,-15.320,18.738,2.075
0.016,-0.886,0.470,-17.578,17.944,3.967
0.005,-0.877,0.496,-18.433,16.113,6.165
0.016,-0.852,0.498,-16.296,13.916,7.751
-0.002,-0.842,0.523,-11.353,13.611,8.301
0.007,-0.822,0.545,-5.188,14.221,5.920
0.018,-0.805,0.558,-0.549,10.315,5.310
0.003,-0.782,0.577,1.709,6.165,5.432
0.009,-0.775,0.584,3.113,7.202,4.456
0.015,-0.780,0.572,4.639,10.071,3.357
0.011,-0.782,0.559,5.615,10.803,2.563
0.005,-0.770,0.528,5.981,10.681,2.441
-0.001,-0.773,0.510,5.493,9.521,2.136
0.000,-0.795,0.511,3.845,8.667,1.404
-0.003,-0.808,0.516,2.197,7.629,1.465
-0.005,-0.817,0.517,2.686,6.226,1.465
-0.001,-0.805,0.515,3.662,5.188,1.343
-0.009,-0.795,0.524,2.991,4.333,1.648
0.004,-0.804,0.557,2.197,3.235,0.671
0.010,-0.814,0.572,2.197,3.113,0.000
0.010,-0.817,0.582,2.441,3.357,0.305
0.013,-0.820,0.578,2.991,4.456,0.427
0.015,-0.818,0.572,3.418,5.249,0.610
0.016,-0.815,0.569,4.028,5.371,0.793
0.019,-0.819,0.571,4.395,5.859,0.977
0.022,-0.817,0.558,4.883,6.714,1.038
0.021,-0.805,0.544,5.493,6.287,1.038
0.018,-0.801,0.526,4.700,5.859,1.526
0.021,-0.812,0.538,2.563,4.822,1.770
0.021,-0.825,0.553,1.282,3.784,2.258
0.025,-0.826,0.565,1.038,3.418,2.808
0.028,-0.822,0.566,1.709,3.723,3.235
0.020,-0.806,0.549,2.258,3.784,3.662
0.015,-0.806,0.536,0.916,3.296,3.967
0.019,-0.820,0.553,-1.221,1.953,3.418
0.024,-0.836,0.570,-1.221,1.648,2.869
0.026,-0.835,0.569,0.732,2.502,3.113
0.029,-0.825,0.564,3.723,2.625,2.808
0.026,-0.815,0.561,6.104,2.014,2.563
0.022,-0.806,0.542,7.080,1.953,2.991
0.018,-0.788,0.546,6.470,0.732,3.479
0.017,-0.782,0.551,4.883,-0.183,3.235
0.023,-0.800,0.577,3.113,-1.282,2.625
0.022,-0.808,0.584,2.136,-1.709,2.625
0.012,-0.814,0.575,2.197,-1.160,2.747
0.016,-0.818,0.578,1.282,-2.197,2.991
0.010,-0.819,0.586,-0.671,-1.709,3.784
0.017,-0.816,0.587,-2.014,-2.197,4.639
0.021,-0.810,0.592,-2.625,-2.747,4.761
0.021,-0.802,0.595,-2.380,-3.357,4.517
0.012,-0.805,0.608,-1.953,-4.272,4.395
0.027,-0.804,0.609,-1.404,-3.967,3.967
0.023,-0.809,0.631,-1.038,-4.700,3.723
0.024,-0.811,0.635,-0.671,-4.089,3.662
0.022,-0.807,0.632,-0.305,-2.319,3.784
0.023,-0.809,0.625,0.549,-1.099,3.601
0.019,-0.803,0.626,0.610,-0.488,3.235
0.023,-0.807,0.622,0.916,0.732,3.174
0.022,-0.806,0.614,1.343,1.648,3.479
0.023,-0.803,0.602,1.465,2.319,3.845
0.020,-0.800,0.590,1.282,1.831,4.028
0.018,-0.804,0.586,1.038,0.854,4.089
0.023,-0.811,0.591,0.549,0.000,4.578
0.022,-0.797,0.589,0.671,-0.366,5.005
0.012,-0.793,0.585,0.854,0.427,5.310
0.020,-0.795,0.589,1.099,0.977,4.822
0.022,-0.795,0.590,0.732,1.648,4.639
0.020,-0.798,0.595,0.427,1.221,4.395
0.018,-0.802,0.594,0.366,1.282,4.272
0.022,-0.808,0.598,0.427,2.136,4.150
0.023,-0.802,0.591,1.343,2.258,4.089
0.023,-0.795,0.582,2.563,2.075,4.150
0.026,-0.794,0.577,4.028,1.587,3.784
0.027,-0.784,0.574,4.578,1.648,3.662
0.027,-0.784,0.566,4.578,2.136,3.723
0.031,-0.785,0.565,4.028,2.380,3.662
0.028,-0.787,0.559,3.479,1.831,3.662
0.027,-0.785,0.555,3.113,1.770,3.723
0.026,-0.791,0.552,2.319,1.892,3.601
0.023,-0.799,0.559,1.648,1.343,3.662
0.024,-0.807,0.561,2.197,0.549,3.418
0.025,-0.809,0.562,3.235,0.305,3.479
0.024,-0.804,0.560,3.601,0.305,3.540
0.026,-0.805,0.566,4.028,-0.122,3.418
0.123,-0.605,1.289,-5.676,32.959,-17.456
0.127,-0.576,1.284,-4.639,39.368,-21.118
0.128,-0.560,1.258,-2.136,45.593,-25.879
0.134,-0.548,1.223,0.000,51.025,-30.640
0.122,-0.550,1.195,0.244,55.298,-35.217
0.169,-0.536,1.170,-0.732,60.181,-39.856
0.134,-0.514,1.165,-1.953,61.890,-42.847
0.122,-0.511,1.166,-0.366,64.209,-48.889
0.150,-0.548,1.146,2.197,72.021,-55.847
0.131,-0.551,1.111,3.906,76.965,-59.753
0.099,-0.563,1.062,5.859,79.895,-64.087
0.094,-0.606,1.014,7.874,81.909,-69.092
0.069,-0.643,0.989,7.935,83.923,-71.716
0.059,-0.686,0.979,10.559,87.341,-74.829
0.043,-0.716,0.935,16.846,87.830,-79.041
0.020,-0.757,0.908,23.132,85.083,-82.458
-0.026,-0.805,0.876,28.076,83.313,-83.740
-0.061,-0.838,0.813,34.241,85.938,-84.900
-0.108,-0.864,0.807,38.025,87.646,-86.365
-0.095,-0.896,0.747,39.429,90.332,-88.684
-0.157,-0.970,0.758,38.574,92.041,-89.539
-0.154,-1.044,0.730,37.598,93.811,-88.379
-0.201,-1.128,0.719,41.565,97.107,-85.510
-0.233,-1.173,0.636,48.035,101.013,-82.275
-0.257,-1.249,0.634,55.115,103.577,-78.857
-0.258,-1.287,0.665,63.293,106.567,-75.012
-0.305,-1.275,0.561,73.303,114.197,-70.007
-0.334,-1.271,0.494,79.590,121.216,-67.139
-0.295,-1.272,0.425,79.834,127.136,-64.453
-0.294,-1.297,0.365,74.768,130.798,-58.838
-0.323,-1.328,0.306,64.148,129.761,-49.683
-0.361,-1.376,0.292,53.955,126.160,-41.504
-0.357,-1.446,0.291,48.340,117.798,-33.813
-0.391,-1.484,0.347,45.288,105.408,-24.292
-0.434,-1.489,0.377,46.814,107.056,-15.137
-0.434,-1.497,0.349,50.659,116.699,-8.240
-0.432,-1.492,0.320,50.293,122.986,-0.916
-0.467,-1.499,0.260,45.959,125.488,8.728
-0.475,-1.500,0.177,40.283,130.676,18.127
-0.467,-1.484,0.099,36.438,134.033,26.123
-0.477,-1.459,0.036,34.302,131.226,34.424
-0.493,-1.409,-0.021,33.142,124.695,42.419
-0.480,-1.357,-0.080,32.532,121.460,48.523
-0.460,-1.336,-0.142,31.128,118.408,54.138
-0.451,-1.343,-0.191,26.855,115.051,61.218
-0.425,-1.420,-0.225,21.973,114.807,68.848
-0.406,-1.491,-0.232,19.104,114.868,78.308
-0.223,-1.568,-0.300,18.372,112.549,87.158
-0.343,-1.565,-0.135,18.555,87.463,103.943
-0.336,-1.532,-0.139,16.479,97.900,116.455
-0.274,-1.485,-0.186,19.897,126.953,127.197
-0.156,-1.433,-0.268,26.245,141.113,136.169
-0.126,-1.356,-0.263,35.034,112.610,139.404
-0.102,-1.307,-0.228,46.326,63.171,134.888
-0.088,-1.254,-0.178,55.237,22.583,130.005
-0.081,-1.186,-0.128,60.425,5.310,128.357
-0.046,-1.109,-0.099,63.171,7.935,128.845
-0.008,-1.027,-0.075,66.223,18.494,130.615
0.020,-1.040,-0.207,70.557,27.344,132.507
0.019,-0.993,-0.223,68.787,25.269,136.658
0.018,-0.906,-0.260,65.918,17.517,138.489
0.017,-0.834,-0.305,66.406,9.521,137.207
0.019,-0.782,-0.325,66.345,2.502,135.254
0.010,-0.737,-0.344,64.819,-2.808,133.545
0.001,-0.702,-0.373,62.988,-7.324,131.592
0.000,-0.673,-0.368,62.195,-12.024,128.723
0.013,-0.669,-0.337,62.256,-18.311,125.977
0.027,-0.663,-0.301,63.293,-26.245,124.268
0.013,-0.629,-0.294,65.430,-35.339,123.535
0.007,-0.599,-0.315,68.726,-44.556,120.728
0.012,-0.575,-0.352,71.533,-53.894,116.577
-0.001,-0.540,-0.379,70.618,-64.148,114.624
-0.007,-0.482,-0.403,66.101,-74.585,114.868
0.001,-0.447,-0.414,60.181,-85.205,115.173
-0.013,-0.414,-0.385,51.453,-95.642,116.150
-0.020,-0.370,-0.346,44.006,-105.713,116.821
-0.018,-0.341,-0.317,42.053,-114.441,114.624
-0.011,-0.324,-0.295,41.931,-122.498,111.084
-0.028,-0.305,-0.234,40.833,-130.859,107.300
-0.022,-0.278,-0.172,39.673,-138.062,105.103
-0.027,-0.239,-0.107,39.551,-143.005,103.210
-0.038,-0.179,-0.077,41.260,-146.667,100.281
-0.046,-0.141,-0.063,43.701,-150.635,95.642
-0.052,-0.106,-0.033,44.250,-155.823,91.125
-0.078,-0.078,0.006,43.823,-161.011,87.097
-0.072,-0.058,0.057,43.884,-166.077,82.092
-0.081,-0.048,0.092,45.166,-170.715,76.965
-0.073,-0.017,0.106,49.683,-174.683,70.129
-0.059,-0.001,0.132,54.932,-179.016,62.256
-0.039,0.018,0.186,56.885,-184.021,55.603
-0.055,0.036,0.214,55.420,-188.110,51.147
-0.061,0.004,0.289,51.941,-192.627,46.814
-0.073,-0.017,0.356,48.889,-196.106,42.969
-0.069,-0.000,0.405,50.903,-196.899,37.842
-0.055,-0.037,0.467,57.007,-196.655,31.250
-0.059,-0.057,0.553,61.646,-195.618,26.428
-0.045,-0.079,0.681,66.467,-192.932,21.179
-0.009,-0.051,0.755,73.486,-187.195,14.282
-0.019,-0.053,0.689,82.825,-179.504,6.165
-0.031,-0.122,0.650,87.585,-175.781,-2.319
-0.032,-0.170,0.689,84.778,-177.002,-7.446
-0.045,-0.210,0.742,80.811,-178.162,-9.583
-0.044,-0.258,0.780,81.482,-177.246,-14.282
-0.028,-0.302,0.850,83.069,-174.683,-19.958
-0.020,-0.359,0.912,83.496,-171.509,-24.109
-0.033,-0.414,0.995,86.792,-169.922,-29.419
-0.004,-0.478,1.041,91.858,-164.490,-35.156
-0.031,-0.549,1.143,97.778,-161.682,-41.809
0.023,-0.565,1.136,104.736,-145.630,-49.133
0.052,-0.589,1.049,108.826,-124.451,-51.819
0.035,-0.618,1.011,107.178,-125.000,-55.847
0.018,-0.661,0.977,101.807,-127.686,-60.425
-0.017,-0.709,0.966,93.506,-126.831,-60.120
-0.058,-0.708,0.960,85.876,-123.779,-58.350
-0.087,-0.719,0.945,83.130,-119.019,-60.547
-0.107,-0.782,0.940,83.801,-112.915,-65.247
-0.110,-0.863,0.972,83.252,-107.483,-68.726
-0.108,-0.922,1.055,82.642,-101.440,-71.838
-0.109,-1.025,1.031,83.191,-91.553,-75.256
-0.125,-1.224,1.098,68.420,-76.172,-70.984
-0.143,-1.225,1.063,58.716,-66.223,-63.782
-0.163,-1.183,1.016,49.377,-55.115,-56.763
-0.178,-1.124,0.979,41.382,-46.387,-52.429
-0.166,-1.091,0.951,38.208,-39.490,-52.856
-0.149,-1.045,0.922,36.255,-34.058,-54.993
-0.141,-1.070,0.875,32.104,-28.992,-57.373
-0.116,-1.106,0.934,20.447,-26.428,-58.472
-0.097,-1.147,0.979,4.333,-23.926,-56.702
-0.018,-1.252,1.035,-13.733,-20.752,-52.124
0.013,-1.208,1.102,-28.748,-17.456,-46.082
-0.123,-1.253,1.294,-24.597,-25.146,-50.842
-0.080,-1.195,1.292,-14.648,-8.179,-46.997
-0.108,-1.116,1.217,-7.690,26.978,-44.128
-0.033,-1.113,1.107,-2.014,36.499,-48.889
-0.086,-1.113,1.099,-1.526,34.973,-53.162
-0.146,-1.153,0.947,-10.315,54.688,-52.124
0.103,-1.160,0.775,-24.597,57.922,-48.706
-0.099,-1.145,0.963,-36.011,30.273,-44.128
-0.031,-1.187,0.904,-42.175,56.641,-49.683
0.001,-1.155,0.857,-37.720,57.007,-45.288
-0.051,-1.067,0.887,-31.250,60.608,-41.077
0.018,-1.020,0.809,-18.372,73.364,-47.058
-0.111,-1.037,0.919,-1.892,59.631,-55.176
0.080,-0.982,0.819,6.897,67.200,-59.143
0.056,-0.959,0.823,8.606,84.106,-59.448
0.095,-0.988,0.767,9.583,84.900,-61.340
0.081,-1.013,0.759,7.996,74.402,-63.477
0.057,-1.002,0.727,5.554,70.129,-62.805
0.048,-0.985,0.641,0.854,76.416,-60.669
0.055,-0.985,0.555,-8.301,83.984,-57.617
0.028,-1.015,0.525,-19.104,83.130,-53.650
0.006,-1.077,0.506,-28.442,78.491,-50.415
-0.010,-1.109,0.510,-32.776,75.562,-48.035
-0.014,-1.158,0.481,-30.701,74.463,-46.631
-0.000,-1.169,0.488,-24.841,72.876,-45.410
0.004,-1.145,0.495,-14.587,69.458,-44.556
0.010,-1.141,0.473,-1.526,66.833,-45.166
0.028,-1.126,0.449,9.644,65.857,-45.288
0.020,-1.095,0.409,17.517,64.575,-43.579
0.004,-1.065,0.350,19.714,65.186,-40.466
0.035,-1.036,0.277,16.418,65.308,-36.133
0.026,-1.025,0.260,6.775,62.683,-31.799
0.026,-1.031,0.245,-5.981,60.303,-26.184
0.016,-1.022,0.263,-17.273,57.739,-20.691
0.037,-1.009,0.251,-25.635,56.580,-17.151
0.028,-0.998,0.283,-31.372,50.720,-14.038
0.021,-0.988,0.302,-35.095,47.302,-10.986
0.031,-0.992,0.314,-35.339,46.753,-9.338
0.026,-0.989,0.327,-33.325,44.678,-8.179
0.044,-0.976,0.343,-29.663,41.138,-7.446
0.045,-0.971,0.378,-23.560,33.569,-7.690
0.014,-0.976,0.388,-16.479,29.480,-7.935
0.019,-0.979,0.373,-10.132,30.457,-7.751
0.016,-0.991,0.338,-5.493,30.823,-6.958
0.005,-0.954,0.386,-4.700,26.306,-3.113
0.021,-0.964,0.354,-3.967,24.231,-2.991
0.026,-0.985,0.398,1.221,17.334,-4.944
0.023,-0.967,0.392,2.258,14.587,-2.686
0.002,-0.922,0.422,0.732,11.658,0.122
0.012,-0.913,0.424,-0.305,13.367,0.366
0.014,-0.914,0.440,-1.770,12.939,-0.122
0.016,-0.912,0.453,-4.211,10.742,0.793
0.009,-0.901,0.460,-5.554,9.094,2.747
0.005,-0.874,0.466,-6.226,9.155,4.028
0.015,-0.862,0.469,-5.005,8.972,3.601
0.017,-0.861,0.476,-3.296,6.104,3.113
0.011,-0.854,0.486,-1.221,3.418,3.235
0.008,-0.835,0.486,1.282,2.991,3.052
0.004,-0.830,0.493,3.601,2.686,2.747
0.007,-0.838,0.500,4.639,2.441,2.563
0.006,-0.837,0.509,4.395,1.953,3.113
0.002,-0.819,0.511,3.967,1.099,3.601
0.004,-0.817,0.521,3.174,1.099,3.845
0.008,-0.813,0.536,1.465,0.977,3.906
0.005,-0.814,0.543,0.122,0.671,4.333
0.007,-0.818,0.539,-0.305,1.038,4.333
0.006,-0.817,0.541,-1.221,1.099,4.395
0.004,-0.824,0.544,-2.136,0.916,4.517
0.001,-0.833,0.546,-2.075,0.854,4.333
0.000,-0.830,0.541,-1.282,0.488,4.150
-0.000,-0.821,0.544,-0.549,-0.061,4.089
-0.002,-0.818,0.539,-0.610,0.000,4.150
-0.002,-0.819,0.557,-1.709,-0.732,4.272
-0.001,-0.825,0.564,-1.892,-1.160,4.272
0.000,-0.824,0.571,-0.671,-0.854,4.211
0.001,-0.816,0.565,1.038,-0.488,3.906
0.003,-0.812,0.560,3.052,-0.183,3.357
0.001,-0.802,0.553,3.906,-0.183,3.418
0.001,-0.804,0.552,3.540,-0.610,3.540
-0.002,-0.812,0.548,2.075,-1.404,3.601
-0.002,-0.810,0.554,1.343,-2.136,3.052
0.000,-0.811,0.557,1.648,-2.136,2.625
-0.001,-0.814,0.559,1.587,-2.136,2.991
-0.001,-0.813,0.570,1.221,-2.441,3.296
-0.004,-0.802,0.579,1.038,-2.136,3.601
-0.001,-0.799,0.571,0.854,-1.831,3.418
-0.006,-0.798,0.570,-0.183,-1.892,3.479
0.001,-0.809,0.592,-0.854,-1.953,2.808
0.000,-0.825,0.596,-0.244,-1.526,2.747
-0.001,-0.822,0.596,0.854,-0.488,3.174
-0.001,-0.825,0.586,2.747,0.427,2.930
-0.002,-0.816,0.573,3.845,0.977,2.930
-0.007,-0.808,0.555,3.662,1.099,3.052
-0.006,-0.807,0.544,2.197,0.488,2.991
-0.000,-0.810,0.572,0.061,-0.610,2.869
0.003,-0.818,0.585,-0.854,-0.732,3.052
0.003,-0.820,0.586,-0.183,-0.305,3.296
0.003,-0.821,0.579,0.793,0.427,3.296
0.005,-0.818,0.575,1.831,0.549,3.296
0.003,-0.812,0.568,2.747,0.305,3.540
0.006,-0.812,0.570,2.991,0.427,3.357
0.006,-0.811,0.572,3.052,0.610,3.296
0.006,-0.813,0.571,3.174,0.793,3.296
0.003,-0.805,0.569,2.808,1.038,3.296
0.005,-0.801,0.563,2.319,1.343,3.357
0.004,-0.808,0.561,1.282,1.343,3.479
0.005,-0.814,0.559,0.366,1.404,3.662
0.006,-0.813,0.556,0.427,1.160,3.906
0.018,-0.815,1.288,8.850,5.371,-20.325
0.016,-0.802,1.303,11.902,12.085,-21.851
0.003,-0.806,1.311,14.160,17.761,-23.376
0.001,-0.798,1.277,18.066,25.635,-26.245
-0.008,-0.771,1.244,24.048,33.447,-29.114
-0.020,-0.750,1.171,29.480,40.710,-32.471
-0.024,-0.760,1.111,31.799,46.570,-35.767
-0.046,-0.783,1.056,30.457,51.270,-37.292
-0.055,-0.797,1.045,29.297,55.298,-39.307
-0.064,-0.798,1.032,28.687,58.228,-41.870
-0.044,-0.809,0.920,27.161,60.974,-40.100
-0.053,-0.815,0.927,24.170,63.354,-41.199
-0.057,-0.809,0.913,25.208,63.660,-42.908
-0.052,-0.818,0.912,27.649,65.430,-44.556
-0.037,-0.885,0.937,29.114,68.359,-46.021
-0.044,-0.934,0.979,32.471,73.547,-45.898
-0.063,-0.945,0.903,40.161,81.726,-45.593
-0.077,-0.937,0.813,47.363,88.501,-46.082
-0.077,-0.925,0.744,49.133,92.224,-46.326
-0.076,-0.951,0.683,45.837,93.323,-44.495
-0.099,-0.987,0.660,42.297,93.567,-42.908
-0.086,-0.996,0.619,41.504,98.816,-41.870
-0.089,-1.001,0.603,42.969,98.694,-40.588
-0.088,-1.008,0.573,45.471,97.046,-40.100
-0.137,-1.101,0.577,49.072,93.506,-39.307
-0.042,-1.234,0.731,52.429,89.600,-37.231
-0.105,-1.208,0.849,58.960,88.135,-29.846
-0.130,-1.177,0.738,71.899,104.187,-27.039
-0.177,-1.178,0.650,78.003,119.507,-25.330
-0.137,-1.206,0.489,72.449,128.296,-23.132
-0.194,-1.211,0.481,61.462,117.554,-13.367
-0.254,-1.203,0.379,49.255,120.239,-6.165
-0.213,-1.263,0.344,45.715,135.620,-7.141
-0.219,-1.302,0.338,45.532,135.315,-3.479
-0.236,-1.284,0.341,47.058,128.845,1.038
-0.232,-1.281,0.345,52.246,125.061,4.822
-0.255,-1.257,0.365,53.589,125.000,10.742
-0.266,-1.254,0.322,52.307,126.892,14.160
-0.265,-1.286,0.250,49.316,130.066,17.944
-0.290,-1.301,0.181,44.128,131.165,24.414
-0.302,-1.281,0.105,38.574,132.690,31.494
-0.304,-1.264,0.062,33.997,132.324,37.781
-0.329,-1.231,0.021,29.175,130.066,43.640
-0.349,-1.234,-0.004,25.452,129.028,46.753
-0.333,-1.285,-0.004,25.452,129.944,46.875
-0.320,-1.316,-0.015,26.733,130.188,49.744
-0.354,-1.320,-0.053,28.320,130.188,55.725
-0.342,-1.311,-0.104,30.334,131.836,62.439
-0.311,-1.340,-0.214,33.386,133.789,66.589
-0.370,-1.384,-0.160,36.560,119.507,74.097
-0.420,-1.325,-0.221,37.781,114.624,84.473
-0.357,-1.303,-0.375,42.114,136.353,88.440
-0.274,-1.299,-0.511,48.523,132.141,86.365
-0.257,-1.325,-0.556,52.185,91.431,84.595
-0.271,-1.369,-0.523,53.345,48.523,86.426
-0.266,-1.363,-0.491,56.274,29.114,91.187
-0.241,-1.334,-0.499,61.401,30.518,98.450
-0.213,-1.226,-0.514,65.430,32.898,106.384
-0.184,-1.101,-0.549,67.993,29.663,112.305
-0.159,-0.999,-0.578,66.101,22.949,116.333
-0.140,-0.902,-0.617,59.753,16.418,119.507
-0.113,-0.820,-0.640,51.208,10.437,121.277
-0.093,-0.814,-0.639,43.091,2.502,121.460
-0.077,-0.834,-0.582,37.598,-5.615,122.192
-0.060,-0.824,-0.528,39.307,-11.902,122.681
-0.043,-0.805,-0.501,48.401,-16.541,121.826
-0.018,-0.778,-0.489,58.228,-22.339,120.056
-0.000,-0.750,-0.476,65.735,-29.907,118.347
0.019,-0.720,-0.469,71.045,-38.818,116.760
0.023,-0.673,-0.496,73.242,-48.035,116.089
0.016,-0.629,-0.516,70.801,-58.533,116.699
0.017,-0.557,-0.520,65.552,-69.214,116.638
0.030,-0.523,-0.533,61.218,-79.041,114.990
0.037,-0.501,-0.538,55.847,-88.501,113.464
0.045,-0.493,-0.511,49.377,-98.877,112.549
0.051,-0.471,-0.448,44.434,-110.046,110.413
0.041,-0.496,-0.418,44.739,-120.544,107.300
0.044,-0.474,-0.348,45.837,-129.150,104.614
0.053,-0.456,-0.264,48.584,-136.108,101.196
0.047,-0.464,-0.228,53.589,-140.320,97.412
0.035,-0.465,-0.217,58.716,-145.081,94.666
0.008,-0.476,-0.167,61.157,-150.879,92.041
0.008,-0.443,-0.136,64.148,-156.250,88.623
0.006,-0.390,-0.174,69.031,-161.194,84.229
0.005,-0.318,-0.161,70.129,-169.617,80.566
0.020,-0.171,-0.100,64.636,-179.016,78.064
0.027,-0.078,-0.033,55.908,-186.829,74.341
0.025,-0.023,0.046,46.997,-193.237,70.496
0.026,0.052,0.106,42.419,-196.106,64.697
0.033,0.072,0.154,42.297,-195.923,56.946
0.042,0.111,0.210,42.358,-194.519,49.377
0.033,0.162,0.200,42.969,-191.589,42.419
0.026,0.128,0.203,43.091,-190.918,34.607
0.035,0.069,0.280,38.574,-193.848,28.137
0.050,0.003,0.391,36.560,-196.411,21.545
0.071,-0.088,0.494,41.199,-196.960,14.526
0.060,-0.144,0.567,48.340,-195.251,8.240
0.062,-0.204,0.612,55.054,-191.956,1.221
0.071,-0.255,0.693,60.852,-188.538,-5.127
0.068,-0.260,0.712,67.078,-183.411,-10.071
0.050,-0.258,0.707,73.120,-177.002,-14.465
0.033,-0.255,0.679,75.989,-171.021,-19.653
0.017,-0.268,0.661,76.538,-166.870,-26.367
0.001,-0.323,0.650,76.355,-165.161,-33.386
-0.005,-0.394,0.658,76.538,-164.978,-39.673
0.008,-0.483,0.717,77.026,-165.100,-44.800
0.030,-0.498,0.784,80.505,-163.391,-48.157
0.031,-0.478,0.826,86.914,-157.959,-52.063
0.006,-0.496,0.810,92.285,-149.963,-56.763
-0.001,-0.552,0.794,93.140,-141.663,-62.744
-0.012,-0.601,0.787,92.224,-135.071,-67.383
-0.028,-0.616,0.768,91.064,-128.967,-69.946
-0.082,-0.624,0.765,91.309,-124.390,-73.730
-0.049,-0.627,0.708,91.553,-116.089,-77.087
-0.157,-0.690,0.751,90.332,-113.892,-83.374
-0.069,-0.797,0.666,87.463,-97.351,-89.722
-0.109,-0.891,0.681,85.693,-93.384,-92.041
-0.170,-1.007,0.650,84.900,-96.497,-95.032
-0.200,-1.128,0.664,86.975,-96.924,-97.900
-0.224,-1.199,0.750,89.722,-97.656,-93.994
-0.263,-1.154,0.775,86.731,-90.576,-88.745
-0.256,-1.110,0.759,84.656,-79.590,-88.501
-0.238,-1.148,0.717,79.346,-67.383,-90.698
-0.246,-1.203,0.707,68.298,-61.707,-90.149
-0.241,-1.234,0.733,52.307,-56.213,-88.196
-0.244,-1.300,0.767,33.997,-50.964,-84.717
-0.246,-1.444,0.777,11.230,-46.082,-78.186
-0.244,-1.508,0.869,-10.376,-42.786,-67.200
-0.249,-1.486,0.975,-21.118,-38.025,-56.641
-0.207,-1.445,1.018,-19.714,-29.663,-51.392
-0.233,-1.391,1.116,-13.123,-20.325,-51.208
-0.196,-1.325,1.135,-1.831,-9.338,-50.964
-0.159,-1.261,1.099,12.207,4.517,-52.368
-0.149,-1.156,0.992,23.804,22.217,-53.833
-0.201,-1.146,0.942,26.489,24.902,-57.678
-0.172,-1.141,0.896,19.958,26.184,-59.265
-0.140,-1.123,0.820,4.211,55.115,-53.284
-0.264,-1.060,0.780,-8.362,59.631,-47.791
-0.151,-1.217,0.604,-12.756,40.222,-64.575
-0.188,-1.257,0.853,-9.033,-4.089,-70.801
-0.266,-1.196,0.686,-16.602,39.185,-53.650
-0.296,-1.190,0.665,-7.141,48.157,-50.293
-0.253,-1.197,0.638,7.324,69.275,-49.744
-0.264,-1.157,0.570,24.231,88.989,-47.546
-0.221,-1.111,0.473,39.124,103.271,-49.316
-0.208,-1.096,0.385,48.889,105.591,-52.185
-0.202,-1.087,0.311,50.293,104.370,-53.101
-0.178,-1.053,0.233,44.678,106.262,-52.307
-0.135,-1.098,0.143,33.569,104.431,-53.162
-0.159,-1.127,0.182,20.569,80.200,-52.673
-0.168,-1.182,0.240,8.789,65.857,-50.720
-0.158,-1.220,0.288,4.028,67.932,-48.645
-0.135,-1.252,0.324,6.348,72.388,-47.424
-0.113,-1.275,0.347,11.414,72.632,-46.204
-0.096,-1.290,0.386,14.954,70.374,-43.518
-0.094,-1.279,0.401,16.785,70.496,-39.795
-0.073,-1.271,0.381,17.883,72.449,-36.133
-0.084,-1.248,0.365,16.113,73.486,-31.982
-0.066,-1.218,0.339,10.681,74.097,-27.710
-0.095,-1.220,0.357,6.165,67.383,-24.231
-0.099,-1.219,0.339,1.099,72.205,-19.531
-0.103,-1.199,0.316,0.732,74.524,-16.785
-0.153,-1.200,0.310,6.042,70.190,-17.029
-0.083,-1.178,0.238,10.315,71.533,-16.541
-0.127,-1.149,0.262,12.512,62.012,-14.343
-0.132,-1.131,0.243,11.658,62.683,-12.024
-0.107,-1.116,0.194,8.545,70.740,-9.583
-0.103,-1.076,0.156,4.944,70.190,-6.409
-0.111,-1.043,0.137,2.197,62.195,-4.639
-0.114,-1.034,0.128,0.244,56.274,-3.967
-0.130,-1.045,0.117,-1.648,53.833,-3.174
-0.139,-1.053,0.105,-0.977,52.368,-3.052
-0.140,-1.043,0.064,2.441,50.537,-3.784
-0.134,-1.030,0.020,4.700,47.607,-3.906
-0.126,-1.003,0.020,4.822,43.701,-2.502
-0.124,-1.000,0.046,2.625,39.429,-1.709
-0.117,-1.001,0.054,-1.160,36.804,-0.793
-0.123,-1.001,0.078,-4.333,32.837,0.488
-0.125,-1.007,0.075,-5.310,30.212,1.221
-0.128,-1.011,0.075,-5.127,27.588,1.831
-0.125,-1.014,0.081,-4.883,24.475,2.319
-0.124,-1.015,0.105,-4.395,20.569,3.113
-0.121,-1.010,0.132,-4.028,17.639,4.272
-0.122,-1.000,0.151,-3.357,15.320,5.127
-0.117,-0.985,0.161,-2.014,13.611,5.249
-0.117,-0.964,0.169,-0.854,12.268,5.432
-0.116,-0.956,0.187,-0.732,10.559,5.371
-0.115,-0.953,0.208,-1.892,9.521,5.493
-0.111,-0.959,0.224,-2.686,8.423,5.554
-0.109,-0.964,0.239,-2.502,7.019,6.226
-0.113,-0.945,0.243,-1.404,6.409,7.141
-0.114,-0.930,0.241,0.427,5.859,6.897
-0.110,-0.926,0.250,2.380,4.761,6.165
-0.112,-0.918,0.246,4.028,4.272,5.981
-0.113,-0.909,0.248,5.127,3.662,5.859
-0.111,-0.907,0.264,5.188,3.235,5.554
-0.118,-0.914,0.276,4.578,2.808,5.432
-0.116,-0.922,0.280,4.211,2.380,5.371
-0.118,-0.922,0.286,4.761,0.977,5.005
-0.120,-0.919,0.292,4.883,0.061,5.127
-0.121,-0.929,0.305,4.517,-0.671,5.127
-0.120,-0.932,0.314,4.517,-1.343,5.005
-0.120,-0.926,0.313,5.737,-1.526,4.761
-0.119,-0.925,0.316,6.836,-1.465,4.578
-0.120,-0.927,0.319,7.446,-1.282,4.333
-0.121,-0.918,0.313,8.484,-0.061,4.211
-0.120,-0.912,0.305,8.972,1.038,3.784
-0.122,-0.908,0.304,8.301,1.282,3.357
-0.118,-0.922,0.310,7.446,0.366,2.747
-0.122,-0.941,0.315,6.531,-0.305,2.502
-0.123,-0.949,0.317,6.348,-0.671,2.625
-0.124,-0.946,0.324,6.592,-1.099,2.747
-0.121,-0.952,0.324,7.507,-1.465,2.441
-0.122,-0.961,0.327,7.446,-1.282,2.502
-0.126,-0.966,0.329,7.263,-0.244,3.113
-0.125,-0.958,0.324,7.690,0.793,3.418
-0.127,-0.950,0.318,7.324,1.099,3.784
-0.122,-0.951,0.325,5.920,1.404,3.845
-0.120,-0.962,0.328,5.615,1.160,3.784
-0.120,-0.967,0.324,5.676,1.099,3.967
-0.122,-0.968,0.329,5.676,0.854,4.211
-0.118,-0.964,0.328,6.104,0.854,4.028
-0.114,-0.970,0.329,6.592,0.488,3.723
-0.113,-0.973,0.332,6.531,0.732,3.906
-0.113,-0.965,0.320,6.348,0.671,4.333
-0.116,-0.951,0.324,5.859,0.183,4.456
-0.112,-0.953,0.325,5.249,0.305,4.333
-0.113,-0.955,0.320,5.005,0.488,4.456
-0.115,-0.955,0.312,4.761,0.427,4.700
-0.114,-0.950,0.308,4.822,0.244,4.944
-0.112,-0.945,0.302,4.639,0.244,5.249
-0.112,-0.947,0.297,4.089,-0.122,5.066
-0.114,-0.946,0.292,3.418,-0.732,5.066
-0.114,-0.947,0.297,2.808,-1.465,4.883
-0.109,-0.943,0.301,2.930,-1.831,4.700
-0.110,-0.947,0.296,3.418,-2.319,4.395
-0.115,-0.945,0.298,3.723,-2.625,4.028
-0.119,-0.948,0.308,4.028,-2.014,3.845
-0.196,-1.209,0.763,-79.041,-107.483,107.422
-0.194,-1.211,0.860,-75.623,-106.201,108.398
-0.191,-1.200,0.933,-69.519,-102.844,108.093
-0.197,-1.177,0.975,-65.308,-96.985,108.215
-0.210,-1.159,0.985,-64.636,-88.867,109.497
-0.222,-1.134,0.995,-67.017,-79.834,111.328
-0.220,-1.118,1.024,-71.106,-71.045,113.220
-0.217,-1.063,1.069,-75.256,-62.439,116.028
-0.201,-0.982,1.095,-77.576,-52.307,118.164
-0.172,-0.911,1.108,-78.369,-41.199,118.042
-0.152,-0.845,1.136,-81.238,-31.677,117.920
-0.147,-0.769,1.169,-84.595,-22.156,118.408
-0.137,-0.709,1.188,-85.327,-10.559,117.615
-0.130,-0.657,1.184,-84.595,0.793,116.150
-0.121,-0.632,1.188,-84.351,10.803,114.807
-0.144,-0.611,1.221,-84.412,21.729,112.732
-0.139,-0.578,1.186,-82.275,32.959,111.023
-0.168,-0.564,1.147,-78.125,44.800,109.619
-0.186,-0.536,1.111,-73.792,55.298,107.544
-0.204,-0.499,1.058,-67.444,63.782,103.821
-0.228,-0.449,0.963,-60.059,70.557,98.694
-0.240,-0.417,0.916,-55.420,74.402,91.858
-0.221,-0.388,0.906,-54.321,75.806,84.045
-0.220,-0.387,0.897,-54.565,76.721,77.881
-0.235,-0.410,0.874,-53.894,78.552,72.571
-0.225,-0.412,0.884,-52.429,80.505,67.932
-0.236,-0.398,0.895,-50.598,82.214,65.063
-0.242,-0.353,0.874,-47.729,84.351,62.012
-0.221,-0.319,0.853,-45.471,87.097,57.312
-0.232,-0.280,0.820,-44.067,88.623,52.551
-0.216,-0.247,0.811,-44.128,89.111,46.631
-0.212,-0.260,0.845,-44.739,88.867,40.710
-0.167,-0.273,0.879,-45.044,89.600,35.583
-0.164,-0.274,0.873,-44.434,92.102,32.654
-0.189,-0.266,0.860,-43.701,95.276,30.396
-0.160,-0.257,0.841,-44.250,97.656,25.269
-0.130,-0.236,0.845,-46.570,97.900,20.813
-0.108,-0.225,0.859,-49.805,97.168,17.578
-0.078,-0.199,0.880,-51.880,97.656,13.794
-0.059,-0.154,0.871,-52.063,99.365,9.888
-0.042,-0.138,0.849,-51.392,101.196,5.249
-0.024,-0.112,0.849,-52.002,102.356,1.282
-0.014,-0.078,0.844,-52.856,104.126,-1.831
-0.002,-0.054,0.825,-53.406,106.567,-5.676
0.008,-0.038,0.794,-53.406,109.436,-10.010
0.006,-0.031,0.755,-52.856,112.000,-14.099
0.008,-0.009,0.716,-51.819,114.258,-18.066
0.028,0.008,0.693,-50.110,115.845,-23.254
0.048,0.008,0.670,-49.438,117.004,-27.954
0.055,0.003,0.660,-51.208,117.310,-31.189
0.073,-0.008,0.669,-52.979,117.676,-34.851
0.097,-0.019,0.671,-52.124,118.469,-39.185
0.098,-0.010,0.662,-49.561,119.568,-42.969
0.106,-0.006,0.633,-45.959,121.277,-47.485
0.123,0.004,0.618,-41.870,122.375,-53.528
0.113,-0.000,0.615,-36.804,122.070,-58.838
0.114,0.010,0.588,-32.227,121.765,-64.758
0.119,0.052,0.591,-27.161,121.948,-71.716
0.117,0.090,0.567,-20.203,123.047,-79.041
0.127,0.126,0.502,-13.062,125.305,-87.891
0.125,0.127,0.407,-7.568,127.014,-96.375
0.112,0.102,0.313,-4.822,127.075,-103.821
0.096,0.073,0.227,-3.479,125.183,-110.779
0.074,0.007,0.156,-3.235,121.765,-117.249
0.056,-0.105,0.107,-3.967,117.310,-122.742
0.047,-0.192,0.071,-3.662,112.427,-126.404
0.028,-0.234,0.019,-0.427,108.582,-129.700
0.016,-0.298,-0.048,4.700,105.652,-134.338
-0.009,-0.351,-0.125,6.714,102.112,-138.611
-0.037,-0.423,-0.203,6.104,97.412,-141.663
-0.059,-0.492,-0.256,3.357,91.675,-143.250
-0.082,-0.572,-0.298,-0.244,85.510,-143.677
-0.096,-0.660,-0.358,-0.854,79.834,-143.860
-0.086,-0.759,-0.427,1.953,73.669,-144.958
-0.055,-0.850,-0.478,5.676,66.528,-145.569
-0.027,-0.911,-0.489,8.545,58.716,-144.165
-0.007,-0.926,-0.512,11.292,51.514,-141.663
0.006,-0.932,-0.540,12.390,45.227,-139.221
0.024,-0.923,-0.543,8.728,38.574,-136.292
0.035,-0.904,-0.556,1.587,32.349,-132.385
0.064,-0.915,-0.562,-6.775,26.062,-128.418
0.082,-0.960,-0.536,-13.916,18.982,-126.221
0.077,-1.029,-0.531,-15.625,12.146,-124.817
0.097,-1.097,-0.513,-13.000,4.761,-124.023
0.124,-1.131,-0.491,-7.935,-1.892,-122.864
0.122,-1.163,-0.459,-2.625,-8.179,-120.728
0.122,-1.204,-0.383,0.793,-14.893,-117.676
0.119,-1.233,-0.295,3.174,-19.958,-114.807
0.108,-1.291,-0.265,7.141,-22.217,-112.488
0.091,-1.360,-0.281,11.841,-23.254,-110.291
0.057,-1.440,-0.308,16.602,-24.658,-106.689
0.129,-1.506,-0.379,21.484,-30.151,-102.661
0.012,-1.527,-0.381,23.987,-40.405,-96.191
0.089,-1.574,-0.483,22.339,-49.561,-96.130
0.064,-1.582,-0.355,23.621,-92.651,-92.712
0.050,-1.582,-0.272,14.282,-91.370,-81.665
0.063,-1.606,-0.160,6.653,-77.271,-72.449
0.101,-1.615,-0.120,4.700,-66.101,-64.758
0.101,-1.618,-0.080,2.808,-68.604,-57.556
0.091,-1.618,-0.040,-1.465,-75.745,-50.903
0.087,-1.634,-0.019,-4.578,-80.078,-44.739
0.096,-1.597,0.001,-6.470,-82.581,-38.330
0.076,-1.537,0.000,-7.324,-85.266,-32.349
0.079,-1.504,-0.008,-7.874,-88.318,-27.405
0.064,-1.440,-0.014,-10.071,-91.248,-21.118
0.055,-1.377,0.015,-12.939,-94.116,-15.808
0.060,-1.344,0.084,-15.747,-98.206,-12.817
0.061,-1.323,0.187,-18.311,-103.455,-10.803
0.061,-1.342,0.288,-20.325,-107.605,-8.972
0.069,-1.386,0.383,-22.217,-109.863,-6.836
0.069,-1.410,0.454,-21.851,-110.474,-3.479
0.060,-1.410,0.503,-18.005,-109.802,0.488
0.062,-1.378,0.546,-11.475,-108.643,3.601
0.066,-1.322,0.561,-3.174,-106.934,5.676
0.066,-1.260,0.541,3.357,-103.882,7.935
0.060,-1.216,0.522,5.554,-101.624,10.132
0.100,-1.161,0.575,3.296,-99.426,11.902
-0.028,-1.130,0.666,0.366,-113.220,15.442
-0.034,-1.077,0.742,0.366,-124.146,15.686
-0.063,-0.998,0.943,-4.150,-109.375,20.691
-0.004,-0.962,0.910,-5.371,-97.229,23.254
0.036,-0.968,0.845,-5.310,-67.444,23.437
-0.023,-0.984,0.903,-3.296,-72.754,20.569
-0.017,-0.998,0.907,-3.601,-71.655,18.250
-0.004,-1.001,0.900,-7.141,-62.378,20.813
0.021,-0.996,0.949,-13.794,-59.875,22.949
0.009,-0.992,1.020,-19.104,-60.974,25.208
0.020,-0.982,1.044,-21.057,-52.979,28.015
0.008,-0.942,1.071,-16.235,-44.678,28.381
-0.001,-0.889,1.017,-7.324,-33.936,27.466
-0.002,-0.852,0.914,1.892,-22.888,24.536
-0.027,-0.838,0.820,8.911,-18.921,20.264
-0.036,-0.848,0.737,10.498,-15.564,17.761
-0.045,-0.851,0.711,7.751,-14.893,16.113
-0.045,-0.851,0.671,4.028,-14.526,14.771
-0.044,-0.869,0.647,-1.404,-14.282,13.489
-0.051,-0.885,0.647,-7.141,-16.541,12.939
-0.050,-0.885,0.629,-10.925,-16.235,13.245
-0.055,-0.887,0.615,-12.390,-11.963,13.794
-0.050,-0.884,0.600,-9.766,-8.606,13.000
-0.033,-0.881,0.567,-3.662,-6.348,11.108
-0.029,-0.870,0.541,2.014,-4.578,9.949
-0.017,-0.852,0.530,5.249,-2.869,9.094
-0.005,-0.850,0.533,7.141,-1.831,7.874
-0.003,-0.851,0.524,8.240,-0.793,6.653
-0.032,-0.854,0.502,9.033,1.282,5.249
0.024,-0.870,0.501,9.338,3.174,2.136
-0.005,-0.881,0.465,7.507,3.845,3.784
0.001,-0.890,0.457,4.150,4.822,4.578
0.000,-0.901,0.456,2.380,4.578,4.639
0.001,-0.899,0.432,1.282,5.310,5.432
0.000,-0.904,0.424,-1.099,6.592,6.348
-0.002,-0.901,0.408,-2.930,7.996,7.690
0.002,-0.896,0.399,-1.953,8.911,7.385
0.010,-0.889,0.383,0.000,8.728,6.897
0.011,-0.872,0.380,1.221,8.057,6.653
0.014,-0.861,0.369,3.296,7.324,5.920
0.013,-0.869,0.351,5.066,7.263,5.188
0.017,-0.875,0.366,4.883,6.470,4.822
0.032,-0.872,0.380,4.883,6.042,4.089
0.049,-0.883,0.396,5.127,5.554,3.357
0.058,-0.880,0.416,4.456,5.310,3.784
0.057,-0.873,0.417,4.028,5.859,4.272
0.046,-0.890,0.395,4.517,6.470,3.601
0.034,-0.904,0.380,5.188,5.798,2.686
0.021,-0.921,0.359,6.897,5.005,1.587
0.018,-0.936,0.351,9.644,3.540,0.000
0.013,-0.950,0.363,11.047,1.831,-1.404
0.015,-0.982,0.386,10.742,0.427,-2.014
0.015,-1.000,0.397,9.766,-0.427,-1.831
0.014,-1.000,0.404,8.362,-0.671,-0.854
0.015,-1.000,0.408,6.958,-0.854,0.244
0.019,-0.987,0.416,4.883,-0.305,1.831
0.017,-0.964,0.424,3.601,0.122,3.723
0.012,-0.945,0.424,3.906,0.732,4.761
0.013,-0.929,0.423,5.127,1.282,4.883
0.012,-0.917,0.427,6.104,1.526,5.127
0.017,-0.910,0.435,6.836,1.770,4.944
0.012,-0.909,0.428,8.179,2.747,4.395
0.008,-0.909,0.415,9.705,4.333,3.967
0.006,-0.914,0.390,10.559,5.676,3.357
0.002,-0.916,0.364,10.071,5.981,3.235
-0.002,-0.918,0.341,8.362,6.287,3.784
-0.011,-0.919,0.328,6.775,6.226,4.150
-0.009,-0.907,0.315,5.920,6.104,4.395
-0.012,-0.914,0.305,6.348,5.371,4.700
-0.010,-0.918,0.303,6.165,4.700,4.578
-0.011,-0.915,0.315,5.737,3.784,4.944
-0.013,-0.909,0.324,5.554,3.357,4.822
-0.016,-0.920,0.320,5.371,3.662,4.333
-0.015,-0.932,0.324,5.005,3.296,4.150
-0.011,-0.935,0.330,4.517,2.380,3.784
-0.004,-0.939,0.339,4.517,1.892,3.540
0.001,-0.938,0.344,4.089,1.404,3.540
0.002,-0.939,0.347,3.296,1.099,3.784
0.002,-0.937,0.348,2.869,1.160,3.662
0.003,-0.926,0.350,2.319,1.038,3.479
0.005,-0.924,0.357,1.953,0.610,2.869
0.007,-0.934,0.371,1.221,0.244,2.319
0.014,-0.942,0.383,0.916,-0.488,2.197
0.019,-0.944,0.395,1.038,-0.793,2.136
0.025,-0.939,0.408,0.427,-0.549,2.563
0.028,-0.938,0.422,-0.366,-0.061,2.869
0.034,-0.931,0.430,-0.610,0.244,2.747
0.032,-0.922,0.423,-0.427,1.160,2.258
0.029,-0.923,0.413,-0.122,1.953,1.709
0.028,-0.925,0.401,-0.488,2.441,1.221
0.023,-0.929,0.395,-1.038,2.808,0.854
0.017,-0.943,0.383,-1.770,3.235,0.671
0.013,-0.954,0.383,-2.441,3.052,0.671
0.011,-0.956,0.382,-2.625,2.686,0.854
0.010,-0.949,0.382,-2.563,3.052,1.038
0.009,-0.940,0.380,-2.808,3.418,1.587
0.012,-0.930,0.367,-3.113,3.662,2.075
0.014,-0.921,0.359,-4.089,3.052,2.625
0.016,-0.908,0.368,-5.432,2.197,3.418
0.018,-0.895,0.372,-5.798,2.380,3.723
0.019,-0.881,0.369,-5.554,2.563,3.418
0.024,-0.880,0.370,-5.188,2.808,2.625
0.027,-0.890,0.367,-4.272,2.808,1.892
0.025,-0.890,0.364,-3.357,2.380,1.770
0.024,-0.884,0.366,-2.747,2.502,1.587
0.023,-0.891,0.361,-2.197,3.052,0.977
0.018,-0.899,0.342,-1.770,2.686,0.671
0.012,-0.901,0.338,-1.770,1.831,0.732
0.011,-0.901,0.346,-2.014,0.854,0.610
0.010,-0.901,0.349,-2.014,0.305,0.488
0.001,-0.903,0.344,-1.709,0.061,0.488
-0.003,-0.903,0.333,-1.343,-0.305,0.244
0.000,-0.899,0.341,-1.587,-0.610,-0.366
0.003,-0.910,0.350,-1.953,-0.671,-0.549
0.000,-0.914,0.372,-2.197,-1.770,-0.305
0.007,-0.908,0.382,-2.014,-1.709,-0.366
0.000,-0.907,0.395,-1.526,-2.808,-0.732
0.004,-0.902,0.401,-1.831,-2.563,-0.732
0.006,-0.912,0.399,-2.563,-2.136,-0.732
-0.004,-0.930,0.412,-3.052,-3.296,-0.610
-0.002,-0.942,0.404,-2.441,-2.136,-0.305
0.094,-1.572,0.401,-63.965,-66.711,66.895
0.131,-1.504,0.507,-71.716,-69.519,75.378
0.107,-1.463,0.609,-79.895,-76.050,84.290
0.125,-1.381,0.706,-88.257,-78.064,92.712
0.148,-1.312,0.736,-92.957,-73.975,100.220
0.120,-1.254,0.773,-91.064,-79.346,104.492
0.090,-1.206,0.791,-86.487,-82.336,107.056
0.062,-1.163,0.767,-79.224,-78.064,109.070
0.026,-1.118,0.765,-71.228,-78.308,110.413
-0.025,-1.070,0.738,-65.735,-80.566,112.061
-0.012,-1.030,0.728,-66.223,-82.886,114.319
-0.027,-0.984,0.833,-70.740,-89.600,118.408
0.015,-0.939,0.854,-73.547,-82.214,120.361
-0.006,-0.882,0.871,-69.519,-80.872,120.422
-0.005,-0.804,0.844,-66.345,-77.759,118.530
-0.009,-0.741,0.811,-65.430,-74.768,115.845
-0.004,-0.656,0.784,-69.458,-74.768,114.136
-0.011,-0.582,0.787,-76.416,-78.125,113.098
-0.013,-0.536,0.785,-83.374,-82.275,110.535
-0.011,-0.535,0.802,-87.463,-84.351,105.469
-0.022,-0.529,0.834,-87.097,-82.825,98.145
-0.009,-0.517,0.846,-82.397,-76.355,91.309
-0.051,-0.453,0.894,-76.599,-71.289,83.374
-0.012,-0.439,0.941,-67.993,-59.814,69.031
0.017,-0.435,0.956,-58.167,-45.166,57.068
-0.023,-0.376,0.929,-53.040,-41.382,60.425
-0.005,-0.333,0.860,-52.246,-31.128,59.326
0.001,-0.328,0.859,-52.490,-27.954,56.030
0.013,-0.309,0.925,-56.091,-26.978,53.650
-0.030,-0.310,0.925,-59.265,-20.447,51.819
-0.032,-0.312,0.917,-64.697,-12.390,49.438
-0.058,-0.340,0.924,-70.923,-20.386,49.988
-0.108,-0.374,0.983,-72.021,-25.574,45.105
-0.087,-0.408,0.976,-62.012,-15.686,39.063
-0.090,-0.458,0.953,-47.058,-8.240,34.424
-0.112,-0.492,0.959,-36.011,-8.240,32.837
-0.165,-0.500,1.035,-28.198,-7.324,32.959
-0.090,-0.540,1.001,-21.606,3.113,31.433
-0.132,-0.528,1.054,-21.423,8.789,39.551
-0.111,-0.514,0.999,-29.846,25.452,47.546
-0.148,-0.533,0.978,-31.311,24.536,47.302
-0.158,-0.535,0.942,-29.175,18.799,45.105
-0.230,-0.493,0.971,-26.367,13.916,43.518
-0.190,-0.499,0.957,-25.696,19.775,42.603
-0.240,-0.470,1.039,-24.231,24.048,42.053
-0.181,-0.443,1.015,-22.766,41.565,43.213
-0.210,-0.423,1.059,-19.958,42.786,42.664
-0.200,-0.389,1.051,-18.250,46.997,41.077
-0.179,-0.377,1.027,-17.151,53.650,38.208
-0.153,-0.360,1.029,-18.555,58.350,37.964
-0.165,-0.349,1.000,-21.729,60.974,41.809
-0.182,-0.326,0.984,-22.156,62.805,47.241
-0.210,-0.301,0.948,-17.578,66.528,51.514
-0.251,-0.218,0.930,-11.475,71.045,53.162
-0.270,-0.094,0.944,-8.179,74.829,50.964
-0.244,-0.066,0.982,-6.409,78.369,43.579
-0.193,-0.069,1.028,-9.521,80.688,35.156
-0.176,-0.083,1.055,-14.709,81.604,29.602
-0.196,-0.096,1.022,-16.357,84.229,26.367
-0.197,-0.041,0.928,-16.357,92.285,23.193
-0.157,-0.014,0.947,-19.958,93.933,22.888
-0.120,-0.006,0.981,-25.208,94.727,22.095
-0.105,-0.002,1.028,-29.663,96.863,21.301
-0.047,0.032,1.080,-32.959,100.525,19.470
-0.015,0.079,1.111,-35.828,106.750,17.700
0.000,0.106,1.106,-39.001,113.220,16.418
0.024,0.087,1.081,-43.701,118.713,14.404
0.048,0.090,1.104,-51.086,123.840,13.062
0.080,0.138,1.111,-55.725,130.432,11.902
0.104,0.132,1.108,-57.251,136.353,8.179
0.140,0.129,1.078,-58.472,142.212,3.052
0.164,0.100,1.051,-58.838,146.790,-1.099
0.125,0.087,1.062,-56.824,149.902,-5.859
0.139,0.088,0.974,-49.255,153.015,-14.160
0.129,0.097,0.918,-36.743,153.259,-24.963
0.118,0.116,0.832,-23.987,150.269,-35.278
0.101,0.172,0.740,-16.785,146.423,-42.542
0.097,0.206,0.663,-15.442,141.602,-49.316
0.111,0.190,0.574,-17.212,137.024,-56.824
0.115,0.170,0.497,-22.644,131.287,-61.768
0.116,0.164,0.425,-30.579,123.962,-65.002
0.122,0.165,0.412,-38.574,115.845,-67.749
0.129,0.163,0.415,-45.349,108.154,-71.533
0.127,0.123,0.394,-50.293,103.455,-75.867
0.123,0.063,0.364,-52.185,100.525,-80.444
0.131,0.023,0.337,-51.636,97.656,-84.656
0.148,0.017,0.330,-47.424,94.238,-89.966
0.158,-0.001,0.325,-39.429,90.271,-96.802
0.174,-0.010,0.329,-30.579,86.365,-103.638
0.201,-0.017,0.328,-23.560,82.886,-109.619
0.204,-0.025,0.338,-19.653,79.102,-114.075
0.198,-0.034,0.326,-18.616,76.660,-117.737
0.197,-0.057,0.307,-19.226,74.890,-121.521
0.194,-0.096,0.268,-21.118,72.876,-124.756
0.182,-0.146,0.225,-23.804,70.374,-127.380
0.171,-0.189,0.190,-26.306,67.322,-129.822
0.159,-0.240,0.123,-29.358,64.392,-131.409
0.142,-0.289,0.084,-33.875,59.326,-131.836
0.106,-0.320,0.072,-37.964,53.345,-132.996
0.103,-0.369,0.049,-39.368,46.997,-134.644
0.087,-0.431,0.046,-37.292,41.016,-136.353
0.090,-0.490,0.052,-32.104,34.912,-139.343
0.096,-0.553,0.041,-24.780,29.785,-142.273
0.090,-0.586,0.016,-16.663,25.696,-143.494
0.077,-0.625,-0.009,-10.498,22.278,-143.921
0.074,-0.729,0.010,-7.874,18.921,-143.677
0.079,-0.828,0.026,-8.545,16.541,-141.357
0.061,-0.884,0.001,-9.521,15.625,-136.108
0.064,-0.916,-0.035,-10.620,14.160,-130.859
0.077,-0.947,-0.068,-15.869,11.719,-125.793
0.098,-0.965,-0.092,-27.344,7.324,-119.507
0.135,-1.006,-0.113,-41.138,1.953,-112.915
0.153,-1.034,-0.111,-53.406,-3.967,-105.164
0.143,-1.051,-0.142,-61.584,-9.644,-97.046
0.109,-1.071,-0.157,-65.063,-15.320,-90.027
0.082,-1.078,-0.123,-64.941,-22.766,-83.557
0.087,-1.028,-0.054,-61.218,-30.334,-78.918
0.109,-0.984,0.020,-53.284,-36.133,-77.820
0.136,-1.016,0.080,-42.358,-39.795,-78.552
0.070,-1.527,0.752,-48.340,-107.666,-1.343
0.081,-1.506,0.828,-42.297,-104.126,8.606
0.118,-1.457,0.870,-29.663,-98.389,15.930
0.141,-1.350,0.853,-17.700,-91.431,21.729
0.134,-1.226,0.803,-8.667,-85.449,25.085
0.128,-1.149,0.773,-6.104,-83.008,25.330
0.130,-1.141,0.787,-12.207,-84.106,24.658
0.128,-1.200,0.837,-25.879,-87.708,27.100
0.088,-1.229,0.947,-43.762,-92.041,36.499
0.077,-1.203,1.000,-57.495,-88.806,44.861
0.081,-1.231,1.042,-63.721,-86.487,50.598
0.072,-1.276,1.053,-68.787,-88.074,59.326
0.292,-1.268,1.058,-71.045,-112.915,68.298
-0.121,-1.130,1.573,-64.575,-165.161,71.167
0.023,-1.019,1.505,-55.664,-97.290,77.454
0.166,-0.912,1.390,-40.833,-43.518,79.895
0.162,-0.827,1.434,-25.146,-50.537,75.623
0.173,-0.745,1.427,-13.550,-50.781,71.411
0.206,-0.689,1.315,-4.333,-38.452,69.885
0.190,-0.634,1.181,2.319,-33.875,69.885
0.148,-0.586,1.119,7.263,-39.917,68.298
0.163,-0.509,1.077,9.521,-44.983,66.589
0.154,-0.444,1.049,7.507,-48.035,66.040
0.144,-0.421,1.063,0.854,-49.072,65.735
0.071,-0.449,1.146,-8.667,-49.500,62.927
0.163,-0.508,1.130,-12.024,-56.335,57.312
0.139,-0.495,1.242,-12.329,-75.378,60.547
0.096,-0.420,1.217,-13.000,-61.096,62.439
0.109,-0.420,1.183,-2.136,-57.556,54.382
0.088,-0.424,1.143,5.737,-50.110,51.514
0.057,-0.386,1.087,7.141,-39.368,51.331
0.038,-0.390,1.062,9.827,-32.043,47.791
0.104,-0.367,1.022,12.390,-26.245,45.471
0.038,-0.339,1.002,13.123,-33.752,43.762
0.047,-0.304,1.017,10.986,-51.941,39.307
0.018,-0.263,1.118,0.610,-56.702,39.185
0.054,-0.263,1.175,-9.460,-50.110,35.706
0.040,-0.298,1.222,-14.709,-40.344,32.715
0.057,-0.363,1.237,-16.113,-28.503,29.785
0.059,-0.377,1.217,-14.221,-20.325,27.161
0.022,-0.384,1.143,-9.583,-15.930,25.452
0.000,-0.393,1.064,-5.676,-13.550,23.499
-0.007,-0.388,0.998,-2.930,-9.277,20.325
-0.014,-0.380,0.940,0.244,-5.676,17.517
-0.004,-0.365,0.893,1.587,-3.113,15.930
0.001,-0.358,0.890,0.732,-3.418,14.038
0.002,-0.390,0.891,-0.244,-4.761,11.780
0.007,-0.422,0.898,-0.549,-6.897,10.193
-0.004,-0.440,0.904,1.038,-8.606,8.545
-0.007,-0.453,0.899,4.883,-7.446,6.775
-0.006,-0.459,0.880,10.071,-3.845,4.578
-0.007,-0.450,0.848,14.526,-1.099,3.418
-0.007,-0.436,0.813,16.602,1.160,2.075
-0.010,-0.431,0.790,15.930,1.770,0.854
-0.003,-0.437,0.769,13.062,2.075,-0.977
0.000,-0.465,0.758,9.399,1.953,-2.502
-0.006,-0.494,0.758,7.019,0.732,-2.319
-0.005,-0.501,0.753,5.920,0.854,-2.747
-0.015,-0.515,0.750,5.798,0.488,-3.479
-0.012,-0.547,0.766,5.554,-0.305,-4.639
0.000,-0.568,0.802,5.676,-0.549,-5.615
0.007,-0.586,0.813,7.507,0.366,-5.920
0.010,-0.606,0.804,10.437,1.831,-5.432
0.012,-0.606,0.797,12.390,2.930,-4.700
0.018,-0.602,0.792,14.465,3.418,-4.211
0.016,-0.598,0.777,15.320,3.723,-4.089
0.024,-0.605,0.772,15.259,3.601,-4.517
0.026,-0.617,0.771,14.709,3.235,-4.700
0.030,-0.628,0.763,13.855,2.991,-3.906
0.030,-0.634,0.761,12.756,2.441,-3.052
0.031,-0.647,0.761,11.230,2.075,-2.319
0.024,-0.660,0.753,10.071,1.648,-1.526
0.031,-0.667,0.756,9.460,1.038,-1.282
0.037,-0.660,0.769,9.216,-0.061,-0.732
0.039,-0.652,0.776,8.606,-0.244,0.366
0.036,-0.641,0.783,7.629,-0.610,1.404
0.035,-0.640,0.785,6.531,-0.793,2.075
0.036,-0.644,0.790,5.310,-1.038,2.380
0.040,-0.649,0.795,4.089,-1.160,2.747
0.038,-0.651,0.797,3.662,-0.916,3.601
0.040,-0.640,0.800,4.028,-0.671,4.333
0.039,-0.624,0.789,5.249,-0.488,4.517
0.041,-0.620,0.774,6.775,-0.366,4.456
0.035,-0.614,0.761,7.324,-0.916,4.700
0.033,-0.608,0.757,7.263,-2.014,4.761
0.035,-0.606,0.763,6.836,-2.869,4.272
0.037,-0.605,0.773,5.554,-3.723,4.272
0.029,-0.609,0.781,4.517,-4.272,4.639
0.027,-0.612,0.792,3.967,-4.150,4.333
0.028,-0.618,0.797,4.028,-3.662,4.578
0.026,-0.614,0.799,3.601,-3.296,5.005
0.025,-0.615,0.796,3.052,-2.747,5.310
0.025,-0.615,0.805,2.747,-2.380,5.554
0.027,-0.607,0.802,3.235,-1.465,5.554
0.021,-0.601,0.794,4.150,-0.793,5.676
0.021,-0.602,0.783,5.005,-0.061,5.371
0.023,-0.601,0.776,5.859,0.244,4.883
0.019,-0.600,0.767,6.714,0.366,4.761
0.017,-0.598,0.765,7.019,0.122,4.822
0.019,-0.591,0.757,7.568,-0.244,3.967
0.021,-0.594,0.747,7.324,-0.488,3.601
0.020,-0.597,0.751,5.371,-1.282,3.784
0.023,-0.601,0.765,3.540,-2.075,4.150
0.022,-0.603,0.769,3.418,-2.258,4.272
0.019,-0.609,0.759,3.906,-2.319,4.150
0.017,-0.622,0.766,3.967,-2.319,4.089
0.021,-0.624,0.766,4.272,-2.319,4.395
0.018,-0.615,0.767,4.700,-2.197,4.822
0.019,-0.607,0.764,4.395,-2.014,4.944
0.015,-0.607,0.761,3.662,-2.075,4.700
0.018,-0.615,0.763,2.747,-2.258,4.517
0.018,-0.619,0.771,2.197,-2.258,4.456
0.019,-0.620,0.771,2.258,-2.197,4.333
0.020,-0.619,0.774,2.869,-2.136,4.333
0.021,-0.619,0.770,3.723,-1.953,4.333
0.020,-0.618,0.764,4.150,-2.014,4.578
0.018,-0.619,0.767,4.150,-2.319,4.822
0.019,-0.617,0.773,4.456,-2.258,4.822
0.019,-0.610,0.773,4.822,-2.136,4.883
0.129,-1.115,0.906,-0.305,-5.615,13.733
0.148,-1.140,0.942,3.357,-15.137,17.700
0.138,-1.141,0.969,3.784,-20.325,22.766
0.143,-1.146,1.006,-1.526,-19.775,27.710
0.159,-1.168,1.029,-11.108,-15.869,33.508
0.156,-1.153,1.100,-23.926,-13.062,40.710
0.179,-1.140,1.131,-36.194,-6.958,46.875
0.205,-1.150,1.161,-44.373,-7.996,53.223
0.224,-1.100,1.153,-47.607,-13.428,57.983
0.261,-1.064,1.147,-45.288,-6.775,60.425
0.229,-1.047,1.094,-38.879,-0.061,62.439
0.286,-1.034,1.016,-29.724,0.244,65.491
0.273,-1.025,0.958,-23.926,0.610,67.810
0.237,-0.995,0.886,-23.010,-0.122,72.205
0.249,-0.968,0.789,-23.560,-1.221,76.782
0.223,-0.915,0.745,-28.137,-3.662,82.275
0.221,-0.854,0.691,-36.194,-4.822,87.646
0.201,-0.801,0.639,-45.654,-5.188,91.492
0.184,-0.784,0.581,-54.626,-6.531,93.567
0.170,-0.781,0.562,-63.354,-10.315,95.642
0.191,-0.761,0.527,-71.838,-15.564,98.633
0.164,-0.693,0.536,-80.322,-21.179,102.234
0.138,-0.628,0.551,-86.548,-25.757,104.858
0.123,-0.598,0.550,-90.332,-27.771,104.797
0.114,-0.582,0.568,-91.980,-31.677,104.431
0.085,-0.547,0.581,-91.614,-37.354,104.797
0.071,-0.568,0.638,-91.003,-39.795,105.042
0.085,-0.585,0.723,-90.942,-41.382,107.361
0.059,-0.535,0.780,-89.355,-41.687,112.610
0.033,-0.470,0.838,-84.351,-39.856,115.784
0.041,-0.417,0.866,-77.332,-36.438,114.929
0.025,-0.365,0.907,-72.388,-36.987,112.732
0.057,-0.301,0.911,-70.862,-37.537,110.352
-0.025,-0.285,0.994,-67.322,-43.518,103.577
0.010,-0.297,1.024,-61.768,-42.175,94.666
-0.031,-0.300,1.063,-56.641,-40.894,96.436
-0.047,-0.215,1.101,-55.725,-26.672,102.722
-0.038,-0.160,1.120,-46.814,-18.127,103.333
-0.034,-0.085,1.150,-34.912,-13.794,100.403
-0.011,-0.024,1.144,-25.574,-11.292,94.177
-0.031,-0.003,1.126,-18.799,-6.287,87.524
-0.044,0.034,1.093,-17.151,-2.686,85.632
-0.034,0.063,1.062,-20.752,-3.845,83.130
-0.068,0.050,1.094,-25.696,-7.446,76.843
-0.046,0.018,1.113,-27.100,-3.296,71.045
-0.060,-0.017,1.121,-22.095,-0.793,67.017
-0.091,-0.028,1.151,-13.672,-3.540,62.683
-0.112,-0.032,1.240,-5.737,-6.226,57.434
-0.047,-0.046,1.235,0.183,1.282,52.307
-0.101,-0.013,1.308,0.366,7.751,56.274
-0.075,0.064,1.277,-7.263,24.719,59.143
-0.060,0.085,1.283,-9.155,30.884,51.331
-0.040,0.075,1.255,-9.766,26.855,43.030
-0.071,0.085,1.257,-13.123,18.127,36.377
-0.098,0.033,1.256,-15.503,13.428,30.029
-0.093,0.005,1.258,-17.273,20.691,27.100
-0.131,0.025,1.270,-17.090,29.236,26.123
-0.141,0.032,1.237,-13.794,42.847,23.254
-0.112,0.014,1.186,-9.277,55.725,17.090
-0.106,-0.003,1.149,-6.592,60.181,12.024
-0.098,0.016,1.119,-6.042,62.378,10.315
-0.073,0.076,1.126,-5.127,64.148,8.850
-0.036,0.146,1.135,-3.845,65.918,6.897
-0.027,0.232,1.143,-2.563,68.298,4.089
-0.019,0.283,1.117,-2.686,72.998,0.244
-0.026,0.287,1.071,-5.859,78.674,-3.723
-0.035,0.254,1.052,-12.512,82.581,-8.118
-0.024,0.228,1.052,-21.362,84.656,-10.803
-0.048,0.194,1.059,-28.137,85.083,-12.817
-0.054,0.180,1.069,-30.945,85.999,-15.625
-0.090,0.186,1.067,-29.236,87.952,-19.409
-0.089,0.179,1.022,-25.513,90.759,-23.132
-0.099,0.172,0.990,-22.461,92.957,-27.405
-0.095,0.178,0.937,-22.156,94.299,-30.518
-0.085,0.200,0.934,-24.170,93.994,-32.715
-0.067,0.216,0.928,-27.100,93.445,-35.095
-0.061,0.213,0.940,-30.823,93.384,-37.109
-0.056,0.219,0.944,-34.180,94.910,-40.405
-0.015,0.188,0.973,-35.522,97.900,-46.082
0.008,0.168,0.968,-35.767,101.135,-50.171
0.020,0.163,0.945,-36.316,104.919,-52.063
0.032,0.179,0.894,-36.926,108.459,-54.138
0.061,0.182,0.837,-38.574,111.084,-56.458
0.080,0.212,0.812,-41.504,111.572,-57.434
0.081,0.233,0.768,-44.312,111.816,-58.533
0.091,0.228,0.728,-45.593,111.267,-61.401
0.112,0.218,0.696,-46.143,109.741,-64.758
0.118,0.207,0.657,-46.143,107.788,-67.383
0.133,0.212,0.625,-44.250,104.248,-70.251
0.124,0.217,0.582,-40.894,100.220,-73.608
0.148,0.197,0.536,-37.170,95.886,-79.285
0.179,0.186,0.506,-34.363,90.576,-84.412
0.194,0.209,0.501,-33.325,84.473,-87.402
0.193,0.199,0.488,-33.020,78.735,-90.149
0.188,0.181,0.469,-32.715,73.364,-93.506
0.187,0.147,0.441,-31.311,68.665,-97.534
0.178,0.108,0.412,-28.870,64.819,-100.952
0.171,0.074,0.389,-28.625,60.242,-102.600
0.143,0.048,0.358,-29.785,55.847,-103.760
0.166,0.011,0.371,-30.640,50.476,-106.506
0.159,0.007,0.359,-31.738,45.959,-107.788
0.191,-0.017,0.344,-31.860,41.138,-110.413
0.203,-0.038,0.352,-33.508,36.194,-112.122
0.223,-0.088,0.360,-35.583,31.616,-113.831
0.222,-0.144,0.361,-36.011,27.954,-114.685
0.231,-0.197,0.372,-35.583,25.391,-113.892
0.236,-0.219,0.399,-34.546,24.048,-112.366
0.238,-0.236,0.393,-31.372,24.048,-112.305
0.227,-0.278,0.375,-28.381,23.499,-112.366
0.212,-0.308,0.363,-28.259,21.790,-111.084
0.198,-0.331,0.361,-28.687,19.714,-109.253
0.197,-0.340,0.338,-27.954,17.883,-107.788
0.203,-0.363,0.305,-27.283,15.686,-107.300
0.220,-0.387,0.282,-28.809,12.207,-106.079
0.237,-0.447,0.308,-31.738,7.019,-104.187
0.244,-0.495,0.356,-33.752,1.892,-101.013
0.251,-0.526,0.390,-31.555,-1.587,-98.083
0.244,-0.558,0.401,-24.414,-3.418,-96.802
0.225,-0.592,0.402,-17.395,-5.310,-96.252
0.224,-1.031,0.974,-39.795,-77.271,-7.568
0.217,-0.989,0.984,-29.907,-73.792,-2.563
0.219,-0.966,0.925,-16.479,-73.364,-2.625
0.197,-0.946,0.883,-9.521,-75.745,-0.732
0.206,-0.914,0.837,-10.559,-70.374,3.418
0.192,-0.931,0.825,-13.672,-71.289,9.949
0.180,-0.948,0.865,-17.944,-72.876,16.724
0.190,-0.949,0.917,-17.273,-73.608,20.569
0.208,-0.958,0.917,-10.681,-73.730,23.560
0.218,-0.946,0.949,-4.089,-75.867,27.405
0.244,-0.916,1.013,1.404,-77.759,31.006
0.276,-0.898,1.023,7.935,-75.928,33.936
0.253,-0.893,1.035,12.329,-73.425,37.659
0.229,-0.855,0.995,12.085,-67.566,43.884
0.195,-0.848,0.971,10.254,-66.345,48.767
0.181,-0.813,1.000,7.324,-69.580,52.734
0.171,-0.767,1.041,2.869,-72.510,56.885
0.146,-0.766,1.116,-1.526,-74.402,60.303
0.150,-0.776,1.213,-4.639,-75.073,63.171
0.153,-0.776,1.284,-4.761,-73.486,66.284
0.159,-0.750,1.322,-2.136,-69.214,70.129
0.162,-0.707,1.340,1.709,-64.087,73.914
0.160,-0.682,1.346,6.409,-59.937,77.698
0.152,-0.646,1.323,12.573,-56.091,79.834
0.150,-0.614,1.329,20.447,-53.101,80.933
0.156,-0.578,1.303,27.344,-48.950,80.688
0.226,-0.509,1.210,31.494,-49.133,80.933
0.017,-0.517,1.331,33.325,-85.266,80.017
0.096,-0.481,1.322,31.677,-78.613,79.895
0.125,-0.477,1.200,31.982,-29.053,82.886
0.074,-0.422,1.182,34.912,-28.503,87.036
0.052,-0.404,1.154,38.574,-31.372,84.717
0.054,-0.455,1.195,42.725,-31.555,81.238
0.098,-0.428,1.220,43.274,-27.649,83.435
0.099,-0.366,1.219,46.326,-24.658,83.984
0.119,-0.312,1.207,51.392,-30.579,81.055
0.015,-0.192,1.244,49.805,-37.476,80.627
0.164,-0.176,1.065,44.373,-26.978,73.364
0.060,-0.259,1.157,38.879,-47.546,68.481
0.050,-0.234,1.149,26.489,-48.645,69.946
0.053,-0.233,1.108,20.020,-34.790,69.763
0.052,-0.256,1.074,20.020,-31.677,67.383
0.011,-0.266,1.063,20.569,-32.104,65.918
0.018,-0.275,1.035,25.696,-27.649,62.927
0.050,-0.235,1.030,33.875,-23.499,60.364
0.006,-0.163,1.019,38.452,-24.658,59.753
0.050,-0.125,1.047,39.551,-28.076,54.260
0.077,-0.109,1.105,34.241,-26.672,51.331
0.075,-0.086,1.171,26.794,-33.386,48.340
0.073,-0.105,1.229,21.973,-35.278,42.480
0.066,-0.156,1.226,19.104,-27.954,37.537
0.059,-0.196,1.181,17.456,-17.273,33.447
0.034,-0.244,1.108,19.348,-11.658,29.541
0.014,-0.283,1.036,21.484,-7.507,26.794
0.011,-0.323,1.001,22.766,-5.005,23.926
0.012,-0.357,0.984,26.245,-4.578,21.301
0.011,-0.379,0.940,31.433,-2.991,19.287
0.010,-0.383,0.897,35.095,-1.404,17.700
0.021,-0.371,0.852,35.156,-0.977,16.357
0.028,-0.358,0.835,31.006,-2.075,15.747
0.034,-0.363,0.837,23.010,-3.113,15.259
0.043,-0.377,0.852,14.771,-4.150,14.648
0.046,-0.389,0.852,8.667,-4.517,13.489
0.039,-0.407,0.844,5.127,-4.456,12.024
0.034,-0.428,0.837,4.700,-3.845,10.498
0.045,-0.443,0.837,7.019,-2.930,8.179
0.050,-0.443,0.823,10.437,-2.502,6.775
0.042,-0.433,0.807,13.000,-2.625,6.531
0.044,-0.447,0.807,14.160,-3.479,5.188
0.045,-0.464,0.818,14.771,-4.517,4.517
0.048,-0.458,0.835,14.282,-4.822,4.150
0.053,-0.460,0.837,14.954,-4.272,3.113
0.056,-0.471,0.833,15.015,-3.601,1.587
0.055,-0.479,0.825,13.672,-3.113,0.732
0.046,-0.506,0.811,11.719,-2.869,0.427
0.045,-0.521,0.819,9.460,-2.808,0.671
0.053,-0.528,0.827,7.935,-2.808,0.366
0.059,-0.537,0.828,7.935,-2.441,0.122
0.067,-0.536,0.824,8.362,-1.953,0.122
0.072,-0.523,0.812,9.827,-1.343,0.061
0.069,-0.516,0.802,10.315,-1.038,0.183
0.062,-0.526,0.807,9.460,-1.526,0.305
0.055,-0.542,0.811,8.179,-1.709,0.061
0.060,-0.565,0.810,8.118,-1.465,-0.610
0.061,-0.575,0.815,7.935,-1.282,-0.427
0.057,-0.594,0.816,8.362,-1.892,0.183
0.053,-0.617,0.821,9.644,-1.953,0.488
0.054,-0.620,0.825,11.475,-1.404,1.343
0.054,-0.606,0.826,12.939,-0.916,2.197
0.056,-0.598,0.818,13.611,-0.183,2.808
0.062,-0.591,0.815,12.878,0.061,2.686
0.069,-0.592,0.817,11.414,-0.122,2.563
0.069,-0.586,0.808,9.094,0.427,3.418
0.069,-0.579,0.798,6.653,0.610,4.272
0.070,-0.575,0.798,4.150,0.366,5.127
0.071,-0.567,0.803,2.502,-0.183,5.737
0.068,-0.561,0.795,2.258,-0.488,5.554
0.067,-0.565,0.795,2.930,-0.549,5.249
0.069,-0.560,0.797,4.211,-0.854,5.066
0.070,-0.547,0.801,5.737,-1.221,5.005
0.074,-0.534,0.793,6.958,-1.526,4.700
0.070,-0.534,0.792,6.409,-2.258,4.578
0.067,-0.551,0.801,5.127,-3.418,4.700
0.063,-0.567,0.816,4.578,-3.662,4.517
0.065,-0.574,0.823,5.310,-3.479,4.395
0.067,-0.575,0.824,6.592,-2.808,4.639
0.066,-0.565,0.815,7.446,-2.319,4.578
0.068,-0.560,0.806,7.446,-1.892,4.578
0.072,-0.552,0.805,6.348,-2.014,4.883
0.073,-0.545,0.803,5.188,-2.319,4.883
0.073,-0.542,0.800,4.944,-2.197,4.578
0.070,-0.537,0.794,5.554,-2.197,4.395
0.068,-0.533,0.776,6.653,-2.258,4.028
0.071,-0.532,0.776,6.836,-3.113,3.357
0.071,-0.523,0.782,6.714,-3.662,2.869
0.072,-0.516,0.784,7.324,-4.456,2.686
0.064,-0.504,0.781,8.240,-4.700,2.197
0.064,-0.492,0.786,9.033,-5.066,1.160
0.065,-0.495,0.793,9.888,-5.859,0.122
-0.037,-1.034,1.053,53.955,82.336,-72.205
-0.049,-1.038,1.029,69.336,86.487,-72.449
-0.062,-1.056,0.979,80.383,93.384,-70.679
-0.056,-1.047,0.958,85.632,103.516,-67.993
-0.082,-1.079,0.871,87.158,112.671,-65.613
-0.111,-1.088,0.756,83.801,115.417,-60.242
-0.140,-1.069,0.652,75.500,121.826,-52.246
-0.152,-1.081,0.573,72.388,126.038,-49.011
-0.150,-1.127,0.510,75.623,125.732,-48.645
-0.148,-1.142,0.454,80.688,124.084,-47.974
-0.159,-1.154,0.391,86.975,122.253,-45.776
-0.123,-1.207,0.351,91.431,119.507,-44.495
-0.153,-1.240,0.391,90.332,112.976,-39.307
-0.175,-1.262,0.401,86.792,115.234,-33.752
-0.164,-1.302,0.378,84.717,128.540,-29.297
-0.161,-1.306,0.330,82.031,140.198,-23.193
-0.173,-1.277,0.245,77.698,144.165,-16.479
-0.189,-1.279,0.167,71.838,140.015,-11.292
-0.210,-1.292,0.109,60.486,132.690,-5.188
-0.235,-1.332,0.048,46.326,124.817,1.160
-0.253,-1.392,0.058,32.959,114.807,8.423
-0.236,-1.441,0.102,25.696,103.210,15.381
-0.281,-1.471,0.139,26.611,90.088,21.973
-0.272,-1.512,0.065,31.372,87.585,27.710
-0.291,-1.502,0.008,37.476,84.106,35.706
-0.299,-1.463,-0.076,46.204,78.491,43.518
-0.306,-1.416,-0.164,55.359,76.050,50.903
-0.295,-1.372,-0.229,60.852,74.768,58.838
-0.271,-1.340,-0.252,63.049,70.862,66.406
-0.236,-1.332,-0.266,63.782,64.331,74.219
-0.219,-1.339,-0.234,61.890,60.791,82.947
-0.185,-1.307,-0.198,57.129,61.096,92.712
-0.149,-1.258,-0.206,54.016,61.279,101.990
-0.142,-1.211,-0.226,51.147,57.556,110.840
-0.135,-1.130,-0.231,47.241,52.063,118.713
-0.113,-1.061,-0.255,46.143,45.715,123.047
-0.086,-1.007,-0.301,47.058,37.476,125.061
-0.057,-0.980,-0.312,47.791,25.024,126.526
-0.036,-0.964,-0.305,47.180,11.780,128.540
-0.010,-0.931,-0.291,47.363,-1.221,130.066
0.012,-0.908,-0.278,48.218,-13.000,131.531
0.024,-0.891,-0.247,48.340,-24.353,134.216
0.030,-0.842,-0.201,48.523,-33.752,136.719
0.035,-0.812,-0.171,50.964,-40.222,137.207
0.057,-0.793,-0.121,53.162,-44.556,136.841
0.057,-0.735,-0.134,53.162,-46.631,137.634
0.052,-0.691,-0.180,50.659,-48.401,138.306
0.063,-0.647,-0.207,45.105,-51.819,138.184
0.077,-0.612,-0.220,38.330,-56.335,137.817
0.081,-0.578,-0.238,32.654,-61.523,137.146
0.083,-0.549,-0.235,30.273,-68.115,135.620
0.083,-0.526,-0.241,30.090,-75.378,133.789
0.067,-0.475,-0.231,31.921,-83.374,132.080
0.070,-0.440,-0.208,36.316,-92.163,128.906
0.087,-0.367,-0.171,41.626,-101.440,124.023
0.099,-0.339,-0.151,45.105,-108.826,119.202
0.099,-0.329,-0.130,44.739,-115.479,115.601
0.092,-0.276,-0.119,41.809,-120.789,113.159
0.082,-0.261,-0.151,39.246,-125.366,109.802
0.053,-0.243,-0.139,34.241,-131.409,107.117
0.052,-0.240,-0.128,30.212,-137.573,103.516
0.029,-0.228,-0.117,29.175,-143.982,99.548
0.026,-0.228,-0.085,29.358,-151.306,96.191
0.018,-0.218,-0.024,30.151,-158.569,93.567
0.013,-0.193,0.037,32.959,-165.649,91.064
0.009,-0.158,0.078,38.147,-171.082,87.402
